millis,ax,ay,az,gx,gy,gz
2024-12-31 11:28:31.685369,-0.004883,0.364258,0.936523,-3.356934,0.793457,-0.854492
2024-12-31 11:28:31.693369,-0.004639,0.362427,0.935547,-3.356934,0.915527,-0.854492
2024-12-31 11:28:31.702369,-0.005981,0.360474,0.937500,-3.234863,0.915527,-0.671387
2024-12-31 11:28:31.710369,-0.005859,0.359497,0.936279,-3.479004,0.976562,-0.793457
2024-12-31 11:28:31.719369,-0.008301,0.360107,0.938354,-3.295898,0.793457,-0.732422
2024-12-31 11:28:31.727369,-0.009644,0.358521,0.938110,-3.173828,0.854492,-0.732422
2024-12-31 11:28:31.736369,-0.009644,0.358887,0.937622,-3.662109,0.793457,-0.732422
2024-12-31 11:28:31.744369,-0.009277,0.359253,0.937988,-3.601074,0.793457,-0.732422
2024-12-31 11:28:31.753369,-0.007324,0.359863,0.937744,-3.356934,0.915527,-0.732422
2024-12-31 11:28:31.761369,-0.006226,0.359863,0.938354,-3.540039,0.976562,-0.732422
2024-12-31 11:28:31.769369,-0.005249,0.359985,0.936279,-3.723145,0.854492,-0.671387
2024-12-31 11:28:31.778369,-0.003052,0.362305,0.937256,-3.906250,0.854492,-0.549316
2024-12-31 11:28:31.786369,-0.003052,0.362549,0.935791,-3.906250,0.854492,-0.671387
2024-12-31 11:28:31.795369,-0.004395,0.364502,0.935181,-4.150391,0.854492,-0.610352
2024-12-31 11:28:31.803369,-0.005371,0.364380,0.934814,-3.662109,0.854492,-0.671387
2024-12-31 11:28:31.812369,-0.007202,0.364624,0.934814,-3.723145,0.854492,-0.671387
2024-12-31 11:28:31.820369,-0.008423,0.363647,0.936768,-3.723145,0.915527,-0.671387
2024-12-31 11:28:31.829369,-0.007690,0.362793,0.935791,-3.723145,0.854492,-0.671387
2024-12-31 11:28:31.837369,-0.008545,0.360229,0.937378,-3.601074,0.732422,-0.671387
2024-12-31 11:28:31.846369,-0.005737,0.358765,0.937988,-4.089355,0.793457,-0.671387
2024-12-31 11:28:31.854369,-0.004883,0.358887,0.937988,-3.784180,0.854492,-0.671387
2024-12-31 11:28:31.863369,-0.004395,0.359497,0.937500,-3.540039,0.915527,-0.549316
2024-12-31 11:28:31.871369,-0.003906,0.361206,0.937622,-3.723145,0.854492,-0.610352
2024-12-31 11:28:31.880369,-0.005493,0.362793,0.936279,-3.845215,0.854492,-0.671387
2024-12-31 11:28:31.888369,-0.006470,0.367310,0.934692,-3.845215,1.037598,-0.610352
2024-12-31 11:28:31.896369,-0.006714,0.366577,0.934692,-4.455566,0.793457,-0.610352
2024-12-31 11:28:31.905369,-0.007324,0.367432,0.934692,-3.967285,0.976562,-0.671387
2024-12-31 11:28:31.913369,-0.006470,0.365356,0.934570,-3.479004,1.037598,-0.671387
2024-12-31 11:28:31.922369,-0.007080,0.364014,0.934814,-3.601074,0.915527,-0.549316
2024-12-31 11:28:31.930369,-0.006592,0.362305,0.936890,-3.601074,0.854492,-0.549316
2024-12-31 11:28:31.939369,-0.006714,0.362427,0.938599,-3.662109,0.732422,-0.610352
2024-12-31 11:28:31.947369,-0.006714,0.361816,0.937012,-3.784180,0.854492,-0.671387
2024-12-31 11:28:31.956369,-0.007080,0.361938,0.937256,-3.723145,0.915527,-0.671387
2024-12-31 11:28:31.964369,-0.007080,0.362305,0.937256,-3.479004,0.732422,-0.671387
2024-12-31 11:28:31.973369,-0.006714,0.363647,0.935913,-3.417969,0.793457,-0.671387
2024-12-31 11:28:31.981369,-0.006592,0.363281,0.935181,-3.479004,0.915527,-0.671387
2024-12-31 11:28:31.990369,-0.005737,0.364502,0.935547,-3.540039,0.915527,-0.610352
2024-12-31 11:28:31.998369,-0.004761,0.364868,0.935303,-3.784180,0.793457,-0.610352
2024-12-31 11:28:32.007369,-0.005005,0.365967,0.934937,-3.784180,0.793457,-0.732422
2024-12-31 11:28:32.015369,-0.005493,0.365601,0.936157,-3.479004,0.793457,-0.671387
2024-12-31 11:28:32.023369,-0.006348,0.365967,0.934814,-3.356934,0.854492,-0.671387
2024-12-31 11:28:32.032369,-0.007202,0.365601,0.935059,-3.540039,0.915527,-0.610352
2024-12-31 11:28:32.040369,-0.008179,0.364868,0.935547,-3.540039,0.732422,-0.732422
2024-12-31 11:28:32.049369,-0.006348,0.364380,0.934814,-3.662109,0.732422,-0.793457
2024-12-31 11:28:32.057369,-0.006592,0.363647,0.935303,-3.662109,0.732422,-0.793457
2024-12-31 11:28:32.066369,-0.005737,0.363281,0.936890,-3.112793,0.793457,-0.793457
2024-12-31 11:28:32.074369,-0.005493,0.362183,0.937134,-3.356934,0.915527,-0.793457
2024-12-31 11:28:32.083369,-0.006104,0.363037,0.936401,-3.356934,0.793457,-0.671387
2024-12-31 11:28:32.091369,-0.005615,0.364258,0.937134,-3.540039,0.915527,-0.732422
2024-12-31 11:28:32.100369,-0.005737,0.364746,0.934570,-3.601074,0.793457,-0.793457
2024-12-31 11:28:32.108369,-0.006836,0.366699,0.934448,-3.723145,0.732422,-0.915527
2024-12-31 11:28:32.117369,-0.006592,0.366821,0.934326,-3.540039,0.976562,-0.793457
2024-12-31 11:28:32.125369,-0.007202,0.367554,0.934204,-3.479004,0.732422,-0.732422
2024-12-31 11:28:32.133369,-0.007324,0.366943,0.934814,-3.601074,0.793457,-0.732422
2024-12-31 11:28:32.142369,-0.006104,0.366577,0.935303,-3.540039,0.976562,-0.854492
2024-12-31 11:28:32.150369,-0.005615,0.363403,0.934448,-3.540039,1.037598,-0.732422
2024-12-31 11:28:32.159369,-0.005371,0.363159,0.936157,-3.784180,0.793457,-0.732422
2024-12-31 11:28:32.167369,-0.005859,0.363159,0.936646,-3.173828,0.854492,-0.671387
2024-12-31 11:28:32.176369,-0.006348,0.363403,0.935913,-3.234863,0.854492,-0.610352
2024-12-31 11:28:32.184369,-0.006348,0.362671,0.935181,-3.356934,0.793457,-0.610352
2024-12-31 11:28:32.193369,-0.007935,0.364258,0.934814,-3.356934,0.732422,-0.732422
2024-12-31 11:28:32.201369,-0.008301,0.365234,0.934326,-3.540039,0.854492,-0.671387
2024-12-31 11:28:32.210369,-0.007446,0.366211,0.935059,-3.967285,0.854492,-0.732422
2024-12-31 11:28:32.218369,-0.005127,0.366821,0.935059,-3.295898,0.732422,-0.793457
2024-12-31 11:28:32.227369,-0.005127,0.367188,0.934326,-3.479004,0.854492,-0.854492
2024-12-31 11:28:32.235369,-0.005371,0.366821,0.934692,-3.417969,0.854492,-0.793457
2024-12-31 11:28:32.244369,-0.003906,0.366821,0.934326,-3.417969,0.671387,-0.732422
2024-12-31 11:28:32.252369,-0.005249,0.366455,0.935547,-3.601074,0.732422,-0.671387
2024-12-31 11:28:32.260369,-0.006958,0.366211,0.934814,-4.211426,0.793457,-0.732422
2024-12-31 11:28:32.269369,-0.005981,0.366943,0.934082,-3.723145,0.854492,-0.671387
2024-12-31 11:28:32.277369,-0.007690,0.366333,0.934937,-3.845215,0.854492,-0.732422
2024-12-31 11:28:32.286369,-0.007202,0.367188,0.934692,-4.211426,0.854492,-0.671387
2024-12-31 11:28:32.294369,-0.005981,0.366821,0.934204,-4.272461,0.976562,-0.610352
2024-12-31 11:28:32.303369,-0.005981,0.368042,0.935791,-4.394531,0.915527,-0.549316
2024-12-31 11:28:32.311369,-0.003418,0.367188,0.934448,-4.760742,0.976562,-0.549316
2024-12-31 11:28:32.320369,-0.001587,0.366821,0.934570,-4.760742,0.854492,-0.549316
2024-12-31 11:28:32.328369,-0.004150,0.369629,0.934082,-4.760742,0.793457,-0.549316
2024-12-31 11:28:32.337369,-0.009521,0.366943,0.933960,-4.211426,0.793457,-0.671387
2024-12-31 11:28:32.345369,-0.009766,0.368652,0.934326,-3.601074,0.793457,-0.793457
2024-12-31 11:28:32.354369,-0.007812,0.369507,0.934082,-3.417969,0.793457,-0.976562
2024-12-31 11:28:32.362369,-0.007080,0.368652,0.933228,-3.173828,0.793457,-1.037598
2024-12-31 11:28:32.370369,-0.005127,0.371216,0.933228,-3.417969,0.854492,-0.793457
2024-12-31 11:28:32.379369,-0.006104,0.368164,0.934814,-3.295898,0.793457,-0.793457
2024-12-31 11:28:32.387369,-0.008667,0.365234,0.936768,-3.479004,0.793457,-0.854492
2024-12-31 11:28:32.396369,-0.007080,0.366211,0.934326,-3.784180,0.732422,-0.732422
2024-12-31 11:28:32.404369,-0.007202,0.366821,0.935059,-3.662109,0.854492,-0.793457
2024-12-31 11:28:32.413369,-0.006470,0.366699,0.933716,-3.723145,0.732422,-0.854492
2024-12-31 11:28:32.421369,-0.006348,0.368896,0.933960,-3.845215,0.793457,-0.793457
2024-12-31 11:28:32.430369,-0.006958,0.369507,0.932861,-3.479004,0.793457,-0.793457
2024-12-31 11:28:32.438369,-0.006470,0.370117,0.933594,-3.601074,0.732422,-0.732422
2024-12-31 11:28:32.447369,-0.006104,0.369019,0.933838,-3.479004,0.854492,-0.732422
2024-12-31 11:28:32.455369,-0.005371,0.369751,0.934448,-3.479004,0.732422,-0.854492
2024-12-31 11:28:32.464369,-0.005737,0.367798,0.934570,-3.723145,0.671387,-0.793457
2024-12-31 11:28:32.472369,-0.006104,0.367554,0.933472,-3.662109,0.671387,-0.854492
2024-12-31 11:28:32.481369,-0.007080,0.368286,0.933960,-3.417969,0.793457,-0.793457
2024-12-31 11:28:32.489369,-0.006836,0.369873,0.934204,-3.601074,0.793457,-0.671387
2024-12-31 11:28:32.497369,-0.008179,0.370239,0.933716,-3.479004,0.915527,-0.671387
2024-12-31 11:28:32.506369,-0.007568,0.370361,0.933105,-3.295898,0.854492,-0.732422
2024-12-31 11:28:32.514369,-0.006958,0.368652,0.932129,-3.356934,0.793457,-0.732422
2024-12-31 11:28:32.523369,-0.005737,0.368774,0.935059,-3.784180,0.854492,-0.793457
2024-12-31 11:28:32.531369,-0.006470,0.368286,0.933838,-3.417969,0.671387,-0.793457
2024-12-31 11:28:32.540369,-0.007080,0.367920,0.933838,-3.540039,0.854492,-0.793457
2024-12-31 11:28:32.548369,-0.005981,0.368042,0.933228,-3.540039,0.915527,-0.854492
2024-12-31 11:28:32.557369,-0.006470,0.370117,0.932983,-3.662109,0.915527,-0.915527
2024-12-31 11:28:32.565369,-0.005981,0.369995,0.932129,-3.601074,0.732422,-0.793457
2024-12-31 11:28:32.574369,-0.006714,0.371094,0.931885,-3.906250,0.732422,-0.854492
2024-12-31 11:28:32.582369,-0.007568,0.370361,0.933350,-3.662109,0.854492,-0.793457
2024-12-31 11:28:32.591369,-0.005981,0.369385,0.932373,-3.662109,0.915527,-0.610352
2024-12-31 11:28:32.599369,-0.004517,0.368530,0.933716,-3.845215,0.854492,-0.610352
2024-12-31 11:28:32.607369,-0.007935,0.368530,0.934082,-4.089355,0.854492,-0.610352
2024-12-31 11:28:32.616369,-0.008301,0.367432,0.934204,-4.150391,0.793457,-0.610352
2024-12-31 11:28:32.624369,-0.007446,0.369141,0.932983,-4.333496,0.915527,-0.671387
2024-12-31 11:28:32.633369,-0.005859,0.369873,0.933594,-3.601074,0.854492,-0.671387
2024-12-31 11:28:32.641369,-0.008057,0.369995,0.931641,-3.479004,0.854492,-0.671387
2024-12-31 11:28:32.650369,-0.007446,0.370850,0.932251,-3.662109,0.793457,-0.610352
2024-12-31 11:28:32.658369,-0.007324,0.372681,0.932007,-3.479004,0.793457,-0.793457
2024-12-31 11:28:32.667369,-0.006592,0.372681,0.933594,-3.295898,0.854492,-0.732422
2024-12-31 11:28:32.675369,-0.006958,0.370361,0.931641,-3.601074,0.915527,-0.732422
2024-12-31 11:28:32.684369,-0.005737,0.371216,0.933350,-3.417969,0.915527,-0.732422
2024-12-31 11:28:32.692369,-0.005737,0.369141,0.933105,-3.479004,0.915527,-0.793457
2024-12-31 11:28:32.701369,-0.004761,0.370361,0.932617,-3.479004,0.793457,-0.732422
2024-12-31 11:28:32.709369,-0.005615,0.370117,0.932617,-3.479004,0.793457,-0.671387
2024-12-31 11:28:32.718369,-0.007202,0.371216,0.933105,-3.601074,0.732422,-0.732422
2024-12-31 11:28:32.726369,-0.007812,0.370605,0.931763,-3.723145,0.793457,-0.732422
2024-12-31 11:28:32.734369,-0.007812,0.369995,0.933350,-3.723145,0.854492,-0.793457
2024-12-31 11:28:32.743369,-0.006836,0.371094,0.932495,-3.540039,0.976562,-0.793457
2024-12-31 11:28:32.751369,-0.007690,0.371338,0.935181,-3.540039,0.793457,-0.732422
2024-12-31 11:28:32.760369,-0.006226,0.371704,0.934570,-3.479004,0.793457,-0.671387
2024-12-31 11:28:32.768369,-0.004517,0.368896,0.932983,-3.601074,0.732422,-0.793457
2024-12-31 11:28:32.777369,-0.004883,0.372192,0.932373,-3.723145,0.793457,-0.854492
2024-12-31 11:28:32.785369,-0.005371,0.372437,0.932617,-3.784180,0.732422,-0.732422
2024-12-31 11:28:32.794369,-0.005493,0.371460,0.931763,-3.356934,0.793457,-0.793457
2024-12-31 11:28:32.802369,-0.005859,0.372925,0.932129,-3.234863,0.793457,-0.793457
2024-12-31 11:28:32.811369,-0.005981,0.371216,0.932983,-3.417969,0.793457,-0.793457
2024-12-31 11:28:32.819369,-0.006714,0.371460,0.931152,-3.845215,0.854492,-0.732422
2024-12-31 11:28:32.828369,-0.007935,0.371216,0.933228,-3.723145,0.793457,-0.732422
2024-12-31 11:28:32.836369,-0.008057,0.370972,0.932861,-3.417969,0.915527,-0.671387
2024-12-31 11:28:32.845369,-0.008057,0.370972,0.933472,-3.295898,0.976562,-0.732422
2024-12-31 11:28:32.853369,-0.006836,0.370117,0.932007,-3.601074,0.854492,-0.732422
2024-12-31 11:28:32.861369,-0.006104,0.371460,0.932373,-3.356934,0.793457,-0.793457
2024-12-31 11:28:32.870369,-0.005859,0.371094,0.933105,-3.295898,0.854492,-0.793457
2024-12-31 11:28:32.878369,-0.005249,0.373535,0.933838,-3.295898,0.732422,-0.793457
2024-12-31 11:28:32.887369,-0.007446,0.370850,0.930176,-3.479004,0.793457,-0.854492
2024-12-31 11:28:32.895369,-0.006958,0.372559,0.930908,-3.356934,0.854492,-0.793457
2024-12-31 11:28:32.904369,-0.006958,0.373535,0.931396,-3.295898,0.793457,-0.732422
2024-12-31 11:28:32.912369,-0.006836,0.371948,0.930542,-3.234863,0.671387,-0.732422
2024-12-31 11:28:32.921369,-0.007202,0.372925,0.931763,-3.356934,0.793457,-0.793457
2024-12-31 11:28:32.929369,-0.006592,0.371704,0.929810,-3.479004,0.793457,-0.793457
2024-12-31 11:28:32.938369,-0.006470,0.373901,0.931885,-3.601074,0.793457,-0.732422
2024-12-31 11:28:32.946369,-0.006714,0.371216,0.932129,-3.112793,0.732422,-0.854492
2024-12-31 11:28:32.955369,-0.007080,0.371216,0.932251,-3.234863,0.732422,-0.854492
2024-12-31 11:28:32.963369,-0.006958,0.372437,0.932007,-3.234863,0.793457,-0.793457
2024-12-31 11:28:32.971369,-0.005737,0.371704,0.931030,-3.051758,0.854492,-0.854492
2024-12-31 11:28:32.980369,-0.005127,0.372437,0.932251,-3.295898,0.793457,-0.793457
2024-12-31 11:28:32.988369,-0.005127,0.371826,0.931030,-3.662109,0.854492,-0.793457
2024-12-31 11:28:32.997369,-0.005615,0.373413,0.931641,-3.479004,0.793457,-0.793457
2024-12-31 11:28:33.005369,-0.005859,0.373413,0.932129,-3.051758,0.732422,-0.793457
2024-12-31 11:28:33.014369,-0.005981,0.372070,0.932251,-2.990723,0.793457,-0.915527
2024-12-31 11:28:33.022369,-0.006592,0.372925,0.934082,-3.234863,0.732422,-0.793457
2024-12-31 11:28:33.031369,-0.007935,0.372559,0.933228,-3.356934,0.793457,-0.793457
2024-12-31 11:28:33.039369,-0.007812,0.372681,0.931885,-3.784180,0.793457,-0.732422
2024-12-31 11:28:33.048369,-0.007690,0.373169,0.931763,-3.356934,0.793457,-0.732422
2024-12-31 11:28:33.056369,-0.008179,0.373047,0.932861,-3.356934,0.915527,-0.732422
2024-12-31 11:28:33.065369,-0.006104,0.371582,0.932495,-3.112793,0.732422,-0.793457
2024-12-31 11:28:33.073369,-0.006104,0.369873,0.932861,-3.173828,0.732422,-0.793457
2024-12-31 11:28:33.082369,-0.005615,0.371094,0.935059,-3.295898,0.732422,-0.793457
2024-12-31 11:28:33.090369,-0.005737,0.370483,0.932861,-3.601074,0.793457,-0.854492
2024-12-31 11:28:33.098369,-0.006470,0.372559,0.931885,-3.601074,0.854492,-0.732422
2024-12-31 11:28:33.107369,-0.005859,0.373779,0.932251,-3.295898,0.915527,-0.732422
2024-12-31 11:28:33.115369,-0.006104,0.374512,0.931885,-3.479004,0.793457,-0.854492
2024-12-31 11:28:33.124369,-0.007202,0.375366,0.930786,-3.356934,0.793457,-0.793457
2024-12-31 11:28:33.132369,-0.005615,0.375000,0.931152,-3.417969,0.732422,-0.854492
2024-12-31 11:28:33.141369,-0.006470,0.373413,0.930908,-3.906250,0.671387,-0.793457
2024-12-31 11:28:33.149369,-0.006226,0.372437,0.932251,-3.417969,0.610352,-0.854492
2024-12-31 11:28:33.158369,-0.006348,0.371094,0.933105,-3.234863,0.732422,-0.915527
2024-12-31 11:28:33.166369,-0.007080,0.371704,0.932007,-3.417969,0.732422,-0.854492
2024-12-31 11:28:33.175369,-0.007812,0.371216,0.932739,-3.479004,0.732422,-0.915527
2024-12-31 11:28:33.183369,-0.008667,0.371460,0.932373,-3.417969,0.732422,-0.915527
2024-12-31 11:28:33.192369,-0.006836,0.371094,0.931030,-3.479004,0.793457,-0.915527
2024-12-31 11:28:33.200369,-0.061768,0.484985,0.914551,-2.929688,1.647949,-1.098633
2024-12-31 11:28:33.209369,-0.028076,0.537476,0.943481,17.700195,12.023926,-7.751465
2024-12-31 11:28:33.217369,0.110840,0.372070,0.903687,49.499512,21.545410,-23.681641
2024-12-31 11:28:33.225369,0.059692,0.302002,0.902466,30.456543,19.409180,-24.414062
2024-12-31 11:28:33.234369,0.107910,0.317993,0.846069,-6.225586,6.835938,-14.953613
2024-12-31 11:28:33.242369,0.088745,0.305054,0.866455,-33.630371,-9.765625,-6.103516
2024-12-31 11:28:33.251369,0.018188,0.244873,0.974121,-19.653320,-30.029297,-4.150391
2024-12-31 11:28:33.259369,-0.045654,0.261597,1.104126,-32.165527,-35.095215,7.263184
2024-12-31 11:28:33.268369,-0.042236,0.366211,0.882324,-92.224121,-6.835938,17.822266
2024-12-31 11:28:33.276369,-0.112183,0.529541,0.867676,-49.743652,5.126953,7.873535
2024-12-31 11:28:33.285369,-0.104858,0.403564,0.925171,19.531250,5.432129,-8.422852
2024-12-31 11:28:33.293369,-0.025757,0.316650,0.944580,23.742676,2.441406,-10.925293
2024-12-31 11:28:33.302369,-0.007202,0.289307,0.971680,7.751465,-1.037598,-6.408691
2024-12-31 11:28:33.310369,-0.004272,0.365723,0.936157,-12.329102,-0.793457,0.427246
2024-12-31 11:28:33.319369,-0.016602,0.421265,0.910767,-23.193359,1.159668,3.540039
2024-12-31 11:28:33.327369,-0.012451,0.418213,0.911255,-12.451172,1.403809,1.037598
2024-12-31 11:28:33.335369,-0.006958,0.381592,0.928955,-0.305176,1.159668,-1.586914
2024-12-31 11:28:33.344369,-0.002441,0.373901,0.928345,-0.122070,1.159668,-2.075195
2024-12-31 11:28:33.352369,-0.004883,0.377441,0.930542,-3.662109,0.549316,-1.159668
2024-12-31 11:28:33.361369,-0.007690,0.390015,0.925537,-5.615234,0.305176,-0.549316
2024-12-31 11:28:33.369369,-0.007935,0.391968,0.924438,-5.004883,0.671387,-0.732422
2024-12-31 11:28:33.378369,-0.006836,0.384521,0.926270,-2.685547,1.037598,-1.098633
2024-12-31 11:28:33.386369,-0.005371,0.379517,0.929565,-2.319336,0.915527,-1.159668
2024-12-31 11:28:33.395369,-0.007080,0.384155,0.928467,-3.845215,0.610352,-0.854492
2024-12-31 11:28:33.403369,-0.007568,0.387695,0.924683,-5.004883,0.549316,-0.671387
2024-12-31 11:28:33.412369,-0.007080,0.388550,0.924072,-4.028320,0.793457,-0.732422
2024-12-31 11:28:33.420369,-0.005371,0.384888,0.926636,-3.295898,0.854492,-0.976562
2024-12-31 11:28:33.429369,-0.005005,0.384277,0.925659,-3.295898,0.976562,-0.854492
2024-12-31 11:28:33.437369,-0.006470,0.386597,0.926514,-3.662109,0.854492,-0.671387
2024-12-31 11:28:33.446369,-0.004395,0.389038,0.927002,-3.723145,0.915527,-0.671387
2024-12-31 11:28:33.454369,0.002197,0.394897,0.922485,-3.967285,0.854492,-1.098633
2024-12-31 11:28:33.462369,0.006958,0.397095,0.920898,-3.601074,0.854492,-1.403809
2024-12-31 11:28:33.471369,0.005737,0.395874,0.921265,-3.845215,0.610352,-1.892090
2024-12-31 11:28:33.479369,0.009644,0.394287,0.918335,-4.699707,0.610352,-2.258301
2024-12-31 11:28:33.488369,-0.002808,0.393066,0.917114,-4.638672,0.671387,-2.807617
2024-12-31 11:28:33.496369,-0.028198,0.372070,0.936523,-2.075195,0.244141,-3.540039
2024-12-31 11:28:33.505369,-0.020386,0.364868,0.936279,-1.464844,0.061035,-3.479004
2024-12-31 11:28:33.513369,0.088623,1.296997,0.548462,10.925293,-1.342773,-4.455566
2024-12-31 11:28:33.522369,-0.029297,0.262329,0.947144,215.209961,-19.348145,-41.870117
2024-12-31 11:28:33.530369,-0.057617,0.182373,0.959595,283.874512,-13.793945,-50.659180
2024-12-31 11:28:33.539369,-0.057373,0.315430,0.920776,250.549316,-10.681152,-45.715332
2024-12-31 11:28:33.547369,-0.046509,0.274780,0.937012,261.352539,-10.742188,-47.241211
2024-12-31 11:28:33.556369,-0.047241,0.180542,0.974487,269.287109,-9.094238,-53.649902
2024-12-31 11:28:33.564369,-0.052734,0.113403,0.991089,264.282227,-7.324219,-71.044922
2024-12-31 11:28:33.572369,-0.293335,-0.073975,0.929688,260.498047,2.136230,-70.922852
2024-12-31 11:28:33.581369,-0.034180,0.104492,0.992065,279.479980,8.422852,-61.706543
2024-12-31 11:28:33.589369,0.198364,-0.361938,1.197388,203.186035,-3.479004,-50.231934
2024-12-31 11:28:33.598369,0.005859,-0.031860,1.017700,15.686035,-8.239746,-8.972168
2024-12-31 11:28:33.606369,-0.008911,-0.015259,1.014038,-1.525879,-2.258301,-1.037598
2024-12-31 11:28:33.615369,-0.002686,-0.013672,1.006958,-1.831055,0.549316,-0.854492
2024-12-31 11:28:33.623369,-0.010254,-0.011963,1.007690,-2.502441,0.854492,-0.854492
2024-12-31 11:28:33.632369,-0.007935,-0.010376,1.008301,-2.746582,1.098633,-1.098633
2024-12-31 11:28:33.640369,-0.009766,-0.012817,1.004639,-2.929688,1.281738,-1.464844
2024-12-31 11:28:33.649369,-0.038086,-0.026367,1.004761,-2.868652,0.610352,-1.647949
2024-12-31 11:28:33.657369,0.012451,-0.016602,1.010498,-3.112793,0.244141,-0.671387
2024-12-31 11:28:33.666369,-0.014282,-0.023804,1.003784,-3.601074,0.305176,1.586914
2024-12-31 11:28:33.674369,-0.069458,-0.045044,1.000854,-3.356934,0.061035,3.967285
2024-12-31 11:28:33.683369,0.041870,0.013306,1.013428,-3.784180,-1.159668,4.638672
2024-12-31 11:28:33.691369,0.040283,0.030273,1.008911,-3.784180,-0.427246,1.464844
2024-12-31 11:28:33.699369,0.007568,0.002197,1.006470,-2.807617,0.427246,-0.244141
2024-12-31 11:28:33.708369,-0.002075,-0.008057,1.005615,-2.319336,0.305176,-0.366211
2024-12-31 11:28:33.716369,-0.004761,-0.008301,1.008301,-2.624512,0.061035,-0.549316
2024-12-31 11:28:33.725369,-0.006226,-0.010254,1.007080,-2.197266,0.061035,-0.671387
2024-12-31 11:28:33.733369,-0.006836,-0.010498,1.009277,-1.892090,0.244141,-0.671387
2024-12-31 11:28:33.742369,-0.006226,-0.009521,1.006348,-2.197266,0.488281,-0.793457
2024-12-31 11:28:33.750369,-0.004272,-0.009155,1.005737,-2.014160,0.366211,-0.732422
2024-12-31 11:28:33.759369,-0.006104,-0.010010,1.006470,-2.197266,0.183105,-0.610352
2024-12-31 11:28:33.767369,-0.006348,-0.010498,1.007446,-2.197266,0.061035,-0.732422
2024-12-31 11:28:33.776369,-0.005127,-0.010254,1.008179,-2.136230,0.244141,-0.915527
2024-12-31 11:28:33.784369,-0.005493,-0.010742,1.006714,-2.502441,0.488281,-0.854492
2024-12-31 11:28:33.793369,-0.006226,-0.010376,1.006104,-2.868652,0.671387,-0.915527
2024-12-31 11:28:33.801369,-0.005615,-0.011475,1.006836,-2.990723,0.671387,-0.976562
2024-12-31 11:28:33.809369,-0.006958,-0.012695,1.006958,-3.234863,0.671387,-0.976562
2024-12-31 11:28:33.818369,-0.005493,-0.012451,1.005615,-3.906250,0.671387,-1.098633
2024-12-31 11:28:33.826369,-0.008545,-0.017090,1.005615,-4.028320,0.854492,-0.915527
2024-12-31 11:28:33.835369,-0.009644,-0.011719,1.010742,-4.943848,0.915527,-0.854492
2024-12-31 11:28:33.843369,-0.009033,-0.008179,1.007812,-4.760742,1.037598,-0.976562
2024-12-31 11:28:33.852369,-0.012207,-0.016235,1.004395,-5.004883,1.403809,-1.281738
2024-12-31 11:28:33.860369,-0.036865,-0.055908,0.998779,-5.310059,1.220703,-3.234863
2024-12-31 11:28:33.869369,-0.088989,-0.157349,1.004395,-5.187988,0.183105,-7.263184
2024-12-31 11:28:33.877369,-0.031982,-0.058960,1.010132,-6.286621,0.061035,-6.347656
2024-12-31 11:28:33.886369,-0.088989,-0.077881,1.001953,-7.446289,-0.122070,-0.854492
2024-12-31 11:28:33.894369,0.072388,0.063354,1.012329,-6.713867,-0.244141,4.211426
2024-12-31 11:28:33.903369,0.047363,0.014038,1.001831,-3.417969,1.953125,0.061035
2024-12-31 11:28:33.911369,0.101196,0.082520,1.002930,-4.028320,0.915527,7.202148
2024-12-31 11:28:33.920369,0.028931,-0.030884,1.001709,-5.737305,0.000000,10.070801
2024-12-31 11:28:33.928369,0.000366,0.059814,1.008057,-4.882812,-0.366211,7.324219
2024-12-31 11:28:33.936369,0.010254,0.044678,1.001465,-3.906250,0.122070,3.906250
2024-12-31 11:28:33.945369,0.189209,-0.161865,1.002319,-0.610352,0.671387,6.652832
2024-12-31 11:28:33.953369,0.065430,0.018555,1.000366,-1.770020,1.098633,12.451172
2024-12-31 11:28:33.962369,-0.135376,0.079956,1.017090,-1.708984,1.464844,10.070801
2024-12-31 11:28:33.970369,-0.029541,0.022339,1.006836,-0.610352,2.746582,7.873535
2024-12-31 11:28:33.979369,-0.067261,0.011963,1.006836,-1.159668,2.014160,2.563477
2024-12-31 11:28:33.987369,-0.012085,-0.008545,1.007812,-0.793457,0.915527,0.183105
2024-12-31 11:28:33.996369,-0.005005,-0.011108,1.005249,-1.525879,0.732422,-1.220703
2024-12-31 11:28:34.004369,-0.022583,-0.018921,1.015625,-1.586914,0.793457,-1.281738
2024-12-31 11:28:34.013369,-0.008545,-0.007568,1.005371,-2.746582,1.220703,-1.708984
2024-12-31 11:28:34.021369,-0.006104,-0.010254,1.006836,-3.051758,1.220703,-1.159668
2024-12-31 11:28:34.030369,-0.006836,-0.010132,1.008545,-2.990723,1.220703,-1.098633
2024-12-31 11:28:34.038369,-0.007690,-0.013184,1.007324,-2.868652,1.403809,-1.037598
2024-12-31 11:28:34.047369,-0.006714,-0.013916,1.010010,-3.051758,1.647949,-0.915527
2024-12-31 11:28:34.055369,-0.008301,-0.012329,1.010498,-3.784180,2.197266,-0.854492
2024-12-31 11:28:34.063369,-0.005127,-0.012207,1.007202,-3.967285,2.929688,-0.976562
2024-12-31 11:28:34.072369,-0.004761,-0.010864,1.007812,-4.089355,3.173828,-1.281738
2024-12-31 11:28:34.080369,-0.005005,-0.011597,1.010254,-4.272461,3.051758,-1.831055
2024-12-31 11:28:34.089369,-0.010742,-0.046997,1.012085,-4.089355,3.723145,-1.892090
2024-12-31 11:28:34.097369,-0.021973,-0.070190,1.013672,-3.234863,5.920410,1.281738
2024-12-31 11:28:34.106369,0.002686,0.004883,1.019653,-3.601074,10.314941,7.568359
2024-12-31 11:28:34.114369,0.002563,-0.023682,1.000000,-3.540039,12.084961,5.981445
2024-12-31 11:28:34.123369,-0.015259,-0.014404,1.009644,-4.028320,11.718750,5.676270
2024-12-31 11:28:34.131369,-0.016357,-0.013794,1.013428,-4.943848,11.840820,7.446289
2024-12-31 11:28:34.140369,0.004150,0.013672,1.025146,-5.676270,12.695312,5.126953
2024-12-31 11:28:34.148369,0.020508,0.026367,1.003052,-5.859375,14.770508,8.056641
2024-12-31 11:28:34.157369,-0.011353,-0.022583,0.991577,-5.004883,12.939453,9.765625
2024-12-31 11:28:34.165369,-0.016357,-0.017456,1.015503,-3.845215,8.178711,1.281738
2024-12-31 11:28:34.173369,-0.051880,-0.070557,1.009399,-1.342773,7.873535,2.197266
2024-12-31 11:28:34.182369,-0.081055,-0.042358,1.013306,2.319336,8.728027,6.347656
2024-12-31 11:28:34.190369,0.076904,-0.132324,1.002075,6.835938,8.544922,6.896973
2024-12-31 11:28:34.199369,-0.024292,0.057861,0.962036,-4.577637,9.155273,19.592285
2024-12-31 11:28:34.207369,0.016602,0.239380,1.005249,-24.047852,9.033203,26.062012
2024-12-31 11:28:34.216369,-0.078247,-0.189209,1.004639,-19.226074,7.812500,3.906250
2024-12-31 11:28:34.224369,-0.185425,-0.277588,0.991455,-5.004883,0.976562,-3.601074
2024-12-31 11:28:34.233369,-0.021118,-0.173218,1.002441,9.948730,-5.432129,12.695312
2024-12-31 11:28:34.241369,-0.013184,-0.026001,0.944092,-9.338379,-1.708984,23.803711
2024-12-31 11:28:34.250369,0.159058,-0.148071,1.019653,-0.915527,-6.774902,18.859863
2024-12-31 11:28:34.258369,0.087280,0.097656,0.984985,9.094238,-7.812500,21.911621
2024-12-31 11:28:34.267369,0.156494,0.059570,1.105469,3.540039,-16.174316,27.160645
2024-12-31 11:28:34.275369,0.073853,0.128052,1.072144,-12.268066,-5.310059,27.343750
2024-12-31 11:28:34.284369,-0.104004,-0.090210,0.920166,-3.295898,-2.136230,24.353027
2024-12-31 11:28:34.292369,0.120361,0.009399,1.061523,0.793457,-12.084961,16.845703
2024-12-31 11:28:34.300369,0.101807,0.122681,1.033813,-2.258301,-7.141113,24.230957
2024-12-31 11:28:34.309369,0.144043,0.125488,1.024658,-11.535645,-1.342773,23.498535
2024-12-31 11:28:34.317369,-0.110107,0.067627,0.899292,-4.638672,0.183105,6.347656
2024-12-31 11:28:34.326369,0.128174,0.229736,1.103149,5.737305,-25.329590,-3.906250
2024-12-31 11:28:34.334369,0.041138,0.113159,1.065186,5.065918,-26.184082,-5.187988
2024-12-31 11:28:34.343369,0.002808,-0.006470,1.015137,-0.427246,-4.455566,-7.446289
2024-12-31 11:28:34.351369,0.003418,-0.009766,1.007080,-2.807617,-0.671387,-3.967285
2024-12-31 11:28:34.360369,-0.000488,-0.007812,1.010498,-2.258301,-1.525879,-2.075195
2024-12-31 11:28:34.368369,-0.006836,-0.005249,1.006470,-2.197266,-1.220703,-1.281738
2024-12-31 11:28:34.377369,-0.008423,-0.010010,1.010864,-2.380371,-0.976562,-0.122070
2024-12-31 11:28:34.385369,-0.057373,-0.019897,1.011597,-2.746582,-0.854492,1.647949
2024-12-31 11:28:34.394369,-0.023804,0.024170,1.004761,-2.441406,-0.732422,7.995605
2024-12-31 11:28:34.402369,-0.049927,0.005737,1.009521,-2.075195,-0.732422,12.512207
2024-12-31 11:28:34.411369,-0.034912,0.021973,1.009521,-2.685547,-0.671387,21.545410
2024-12-31 11:28:34.419369,-0.075073,0.024536,1.006836,-3.173828,-0.122070,25.756836
2024-12-31 11:28:34.427369,0.040894,-0.034302,1.016846,-4.150391,0.427246,33.813477
2024-12-31 11:28:34.436369,0.061279,-0.080200,1.009644,-4.272461,0.305176,29.846191
2024-12-31 11:28:34.444369,-0.019897,-0.003418,1.007568,-4.943848,-0.061035,8.544922
2024-12-31 11:28:34.453369,-0.066162,-0.010376,1.009277,-5.187988,0.000000,5.249023
2024-12-31 11:28:34.461369,0.020508,-0.022461,1.012695,-6.225586,-0.854492,15.258789
2024-12-31 11:28:34.470369,-0.104248,-0.029297,1.013184,-8.483887,-0.915527,16.357422
2024-12-31 11:28:34.478369,-0.309204,0.003296,0.959595,-7.141113,-0.732422,3.784180
2024-12-31 11:28:34.487369,-0.094238,0.045166,1.023926,-0.488281,2.624512,0.183105
2024-12-31 11:28:34.495369,0.222900,-0.036621,1.021240,1.220703,0.305176,-0.854492
2024-12-31 11:28:34.504369,-0.038940,0.041626,0.981079,-4.699707,-3.723145,2.624512
2024-12-31 11:28:34.512369,-0.105347,0.013794,0.992065,-2.990723,-2.136230,0.488281
2024-12-31 11:28:34.521369,0.287964,-0.063354,1.006226,-2.136230,1.953125,-1.708984
2024-12-31 11:28:34.529369,0.026978,-0.014771,1.000732,-4.150391,0.183105,-1.892090
2024-12-31 11:28:34.537369,0.066162,-0.016968,1.008789,-5.737305,0.915527,-4.699707
2024-12-31 11:28:34.546369,-0.002930,-0.006958,1.009399,-5.249023,1.892090,-4.882812
2024-12-31 11:28:34.554369,-0.031250,-0.021484,1.005371,-4.821777,1.586914,-4.821777
2024-12-31 11:28:34.563369,-0.019043,-0.006592,1.006104,-4.821777,1.831055,-8.605957
2024-12-31 11:28:34.571369,-0.013916,-0.003174,1.008789,-4.028320,2.197266,-11.108398
2024-12-31 11:28:34.580369,-0.034790,-0.004761,1.007202,-3.112793,2.075195,-10.498047
2024-12-31 11:28:34.588369,0.002075,0.011963,1.013672,-1.342773,2.502441,-9.948730
2024-12-31 11:28:34.597369,-0.151001,0.000366,1.011230,0.854492,2.746582,-8.239746
2024-12-31 11:28:34.605369,0.230957,-0.017090,1.013672,0.122070,0.732422,-5.310059
2024-12-31 11:28:34.614369,0.022949,0.004272,1.005127,-3.112793,0.488281,-4.577637
2024-12-31 11:28:34.622369,0.003662,-0.001587,1.006226,-2.319336,1.281738,-3.234863
2024-12-31 11:28:34.631369,-0.003906,-0.005249,1.009155,-1.708984,1.647949,-1.525879
2024-12-31 11:28:34.639369,-0.008423,-0.007202,1.010132,-1.586914,1.770020,-0.854492
2024-12-31 11:28:34.648369,-0.006958,-0.007568,1.008667,-1.770020,1.892090,-0.732422
2024-12-31 11:28:34.656369,-0.006958,-0.007202,1.008423,-1.464844,2.014160,-0.549316
2024-12-31 11:28:34.664369,-0.006104,-0.008179,1.009521,-1.586914,2.136230,-0.427246
2024-12-31 11:28:34.673369,-0.006592,-0.009155,1.010376,-1.525879,2.258301,-0.366211
2024-12-31 11:28:34.681369,-0.007446,-0.008179,1.008179,-1.831055,2.075195,-0.244141
2024-12-31 11:28:34.690369,-0.008667,-0.009399,1.009766,-1.892090,2.136230,0.061035
2024-12-31 11:28:34.698369,-0.009033,-0.010986,1.009033,-2.380371,2.136230,0.549316
2024-12-31 11:28:34.707369,-0.008911,-0.011475,1.008911,-2.502441,2.075195,1.220703
2024-12-31 11:28:34.715369,-0.009644,-0.011475,1.010620,-2.685547,2.197266,1.708984
2024-12-31 11:28:34.724369,-0.007568,-0.012207,1.009033,-2.685547,2.197266,2.075195
2024-12-31 11:28:34.732369,-0.006958,-0.008667,1.008057,-2.868652,2.075195,1.953125
2024-12-31 11:28:34.741369,-0.006104,-0.009155,1.008545,-2.990723,1.708984,1.281738
2024-12-31 11:28:34.749369,-0.005493,-0.007690,1.008545,-3.173828,1.525879,0.854492
2024-12-31 11:28:34.758369,-0.004150,-0.009766,1.008545,-3.173828,1.525879,0.671387
2024-12-31 11:28:34.766369,-0.004517,-0.008545,1.007446,-2.868652,1.281738,0.488281
2024-12-31 11:28:34.774369,-0.004639,-0.009644,1.008667,-2.868652,0.976562,0.671387
2024-12-31 11:28:34.783369,-0.004761,-0.010986,1.008057,-3.051758,0.671387,0.915527
2024-12-31 11:28:34.791369,-0.006592,-0.011230,1.009033,-3.173828,0.610352,0.915527
2024-12-31 11:28:34.800369,-0.006714,-0.010864,1.007690,-3.479004,0.488281,0.610352
2024-12-31 11:28:34.808369,-0.007568,-0.010132,1.009155,-3.601074,0.366211,0.305176
2024-12-31 11:28:34.817369,-0.008179,-0.007690,1.009644,-3.662109,0.183105,0.061035
2024-12-31 11:28:34.825369,-0.007202,-0.002075,1.009888,-3.417969,0.122070,0.244141
2024-12-31 11:28:34.834369,-0.006470,0.000854,1.010254,-3.295898,-0.061035,1.281738
2024-12-31 11:28:34.842369,-0.007935,0.004028,1.010498,-3.540039,-0.305176,3.662109
2024-12-31 11:28:34.851369,-0.007446,-0.000977,1.009644,-4.028320,-0.366211,7.263184
2024-12-31 11:28:34.859369,-0.009033,-0.009766,1.010620,-4.760742,-0.610352,8.422852
2024-12-31 11:28:34.868369,-0.007690,-0.003784,1.009766,-4.394531,-0.610352,7.507324
2024-12-31 11:28:34.876369,-0.006592,-0.026245,1.008423,-4.089355,-0.610352,6.469727
2024-12-31 11:28:34.885369,-0.007446,-0.023193,1.010132,-3.784180,-0.488281,3.906250
2024-12-31 11:28:34.893369,-0.010742,-0.007935,1.009399,-3.967285,-0.549316,0.366211
2024-12-31 11:28:34.901369,-0.013916,-0.007324,1.007935,-3.967285,-0.549316,-0.366211
2024-12-31 11:28:34.910369,-0.013672,-0.006104,1.008423,-4.028320,-0.366211,-0.305176
2024-12-31 11:28:34.918369,-0.012695,-0.005859,1.008545,-3.723145,-0.122070,-0.244141
2024-12-31 11:28:34.927369,-0.011841,-0.005371,1.007690,-3.417969,0.183105,-0.305176
2024-12-31 11:28:34.935369,-0.010742,-0.005005,1.007812,-3.112793,0.488281,-0.366211
2024-12-31 11:28:34.944369,-0.009888,-0.005249,1.008545,-2.807617,0.610352,-0.244141
2024-12-31 11:28:34.952369,-0.008057,-0.004883,1.008545,-3.173828,0.671387,-0.183105
2024-12-31 11:28:34.961369,-0.008667,0.001953,1.003784,-4.333496,0.488281,-0.671387
2024-12-31 11:28:34.969369,-0.007080,-0.001099,1.009644,-4.577637,0.244141,-1.525879
2024-12-31 11:28:34.978369,-0.011841,-0.004517,1.009766,-3.356934,0.305176,-1.098633
2024-12-31 11:28:34.986369,-0.014526,-0.005981,1.007202,-3.173828,0.427246,-1.098633
2024-12-31 11:28:34.995369,-0.013794,-0.002930,1.006958,-2.929688,0.610352,-0.915527
2024-12-31 11:28:35.003369,-0.013428,-0.006104,1.010498,-3.051758,0.732422,-0.976562
2024-12-31 11:28:35.011369,-0.013062,-0.006470,1.009521,-3.479004,0.671387,-1.098633
2024-12-31 11:28:35.020369,-0.012939,-0.006836,1.009521,-2.990723,0.671387,-0.915527
2024-12-31 11:28:35.028369,-0.012451,-0.006714,1.008545,-2.990723,0.793457,-0.915527
2024-12-31 11:28:35.037369,-0.009155,-0.007935,1.010376,-3.234863,0.854492,-0.976562
2024-12-31 11:28:35.045369,-0.009521,-0.004517,1.009155,-3.417969,0.915527,-1.037598
2024-12-31 11:28:35.054369,-0.010132,-0.004639,1.010742,-3.234863,0.976562,-1.098633
2024-12-31 11:28:35.062369,-0.010376,-0.003906,1.009033,-3.723145,1.159668,-1.037598
2024-12-31 11:28:35.071369,-0.010376,-0.004395,1.009277,-3.417969,1.342773,-1.098633
2024-12-31 11:28:35.079369,-0.011475,-0.004395,1.007812,-3.356934,1.403809,-1.098633
2024-12-31 11:28:35.088369,-0.013794,-0.005737,1.008057,-3.173828,1.342773,-1.098633
2024-12-31 11:28:35.096369,-0.012573,-0.006592,1.010254,-3.173828,1.464844,-1.342773
2024-12-31 11:28:35.105369,-0.011719,-0.006226,1.009155,-3.540039,1.708984,-1.464844
2024-12-31 11:28:35.113369,-0.011597,-0.006348,1.008667,-3.845215,1.525879,-1.403809
2024-12-31 11:28:35.122369,-0.008301,-0.006104,1.010742,-3.479004,1.647949,-1.220703
2024-12-31 11:28:35.130369,-0.009033,0.002197,1.004639,-3.112793,1.220703,-1.403809
2024-12-31 11:28:35.138369,-0.015381,-0.001221,1.004028,-2.319336,1.159668,-0.793457
2024-12-31 11:28:35.147369,-0.008667,-0.006470,1.010254,-2.502441,1.220703,-0.549316
2024-12-31 11:28:35.155369,-0.006104,-0.009521,1.012085,-2.929688,1.342773,-0.671387
2024-12-31 11:28:35.164369,-0.010498,-0.001465,1.008179,-3.540039,1.098633,-0.793457
2024-12-31 11:28:35.172369,-0.008545,-0.006104,1.011108,-3.356934,1.098633,-0.671387
2024-12-31 11:28:35.181369,-0.009033,-0.006714,1.009399,-2.990723,1.220703,-0.732422
2024-12-31 11:28:35.189369,-0.009644,-0.008911,1.010376,-3.112793,1.159668,-0.610352
2024-12-31 11:28:35.198369,-0.009766,-0.007446,1.009521,-3.662109,1.403809,-0.427246
2024-12-31 11:28:35.206369,-0.017090,0.001709,1.004883,-3.662109,1.037598,-0.366211
2024-12-31 11:28:35.215369,-0.009766,-0.016968,1.010376,-2.990723,0.976562,-0.183105
2024-12-31 11:28:35.223369,-0.011230,-0.016113,1.008179,-4.028320,0.976562,0.854492
2024-12-31 11:28:35.232369,-0.011108,-0.010620,1.007446,-3.479004,0.976562,3.417969
2024-12-31 11:28:35.240369,-0.010376,-0.006714,1.010132,-2.990723,1.159668,4.699707
2024-12-31 11:28:35.249369,-0.002930,0.006836,1.008911,-3.173828,1.281738,4.089355
2024-12-31 11:28:35.257369,-0.005615,-0.002319,1.009399,-2.807617,1.220703,1.831055
2024-12-31 11:28:35.265369,-0.007324,-0.003662,1.009399,-2.685547,1.037598,0.671387
2024-12-31 11:28:35.274369,-0.008423,-0.002686,1.009521,-2.990723,1.037598,0.061035
2024-12-31 11:28:35.282369,-0.008301,-0.003052,1.009033,-2.380371,1.159668,-0.061035
2024-12-31 11:28:35.291369,-0.008423,-0.003296,1.008911,-2.502441,1.098633,-0.183105
2024-12-31 11:28:35.299369,-0.008911,-0.006348,1.009644,-2.563477,0.976562,-0.244141
2024-12-31 11:28:35.308369,-0.008423,-0.006470,1.010132,-2.441406,0.854492,-0.244141
2024-12-31 11:28:35.316369,-0.008789,-0.007202,1.009521,-2.685547,0.976562,-0.244141
2024-12-31 11:28:35.325369,-0.007935,-0.006958,1.010010,-2.807617,0.976562,-0.305176
2024-12-31 11:28:35.333369,-0.007080,-0.007812,1.010010,-2.563477,0.915527,-0.305176
2024-12-31 11:28:35.342369,-0.007324,-0.007690,1.009766,-2.746582,1.037598,-0.305176
2024-12-31 11:28:35.350369,-0.007446,-0.007568,1.009155,-3.051758,0.976562,-0.305176
2024-12-31 11:28:35.359369,-0.008301,-0.008789,1.010498,-2.990723,1.098633,-0.244141
2024-12-31 11:28:35.367369,-0.008057,-0.008301,1.011230,-2.868652,1.159668,0.000000
2024-12-31 11:28:35.375369,-0.007568,-0.007568,1.009766,-3.417969,1.098633,0.244141
2024-12-31 11:28:35.384369,-0.008911,-0.007568,1.009644,-3.112793,1.037598,0.122070
2024-12-31 11:28:35.392369,-0.008301,-0.006836,1.008667,-3.051758,0.976562,-0.061035
2024-12-31 11:28:35.401369,-0.008423,-0.007080,1.010376,-3.051758,0.915527,-0.244141
2024-12-31 11:28:35.409369,-0.006958,-0.007080,1.009766,-3.356934,1.037598,-0.244141
2024-12-31 11:28:35.418369,-0.007202,-0.007202,1.012329,-3.295898,1.037598,-0.244141
2024-12-31 11:28:35.426369,-0.006714,-0.007568,1.008545,-3.479004,0.915527,-0.244141
2024-12-31 11:28:35.435369,-0.006958,-0.006592,1.009888,-3.051758,0.854492,-0.244141
2024-12-31 11:28:35.443369,-0.007324,-0.007568,1.009644,-2.868652,0.976562,-0.244141
2024-12-31 11:28:35.452369,-0.007446,-0.008057,1.009766,-2.807617,0.854492,-0.305176
2024-12-31 11:28:35.460369,-0.008545,-0.008057,1.008545,-3.112793,0.793457,-0.305176
2024-12-31 11:28:35.469369,-0.009521,-0.008667,1.010376,-2.929688,0.854492,-0.244141
2024-12-31 11:28:35.477369,-0.008667,-0.007812,1.009888,-3.295898,0.793457,-0.244141
2024-12-31 11:28:35.486369,-0.008789,-0.008667,1.009277,-3.234863,0.854492,-0.061035
2024-12-31 11:28:35.494369,-0.006958,-0.008911,1.008789,-3.051758,0.976562,0.244141
2024-12-31 11:28:35.502369,-0.008057,-0.007324,1.008789,-3.173828,0.976562,0.671387
2024-12-31 11:28:35.511369,-0.007202,-0.006592,1.010376,-3.051758,0.976562,0.671387
2024-12-31 11:28:35.519369,-0.007080,-0.005493,1.009399,-2.990723,0.915527,0.366211
2024-12-31 11:28:35.528369,-0.005981,-0.005859,1.008179,-3.234863,0.915527,0.000000
2024-12-31 11:28:35.536369,-0.005859,-0.007080,1.009766,-3.234863,0.854492,-0.122070
2024-12-31 11:28:35.545369,-0.006592,-0.007080,1.009155,-3.173828,0.793457,0.000000
2024-12-31 11:28:35.553369,-0.007446,-0.008179,1.009277,-2.929688,0.915527,0.183105
2024-12-31 11:28:35.562369,-0.007690,-0.010498,1.009644,-3.234863,1.098633,0.488281
2024-12-31 11:28:35.570369,-0.008545,-0.010864,1.009766,-3.601074,1.159668,1.342773
2024-12-31 11:28:35.579369,-0.009399,-0.005981,1.009277,-4.028320,1.281738,1.953125
2024-12-31 11:28:35.587369,-0.009155,-0.003052,1.008423,-3.967285,1.037598,1.831055
2024-12-31 11:28:35.596369,-0.008179,-0.006104,1.009399,-3.601074,1.037598,1.220703
2024-12-31 11:28:35.604369,-0.005859,-0.005981,1.009155,-3.356934,1.037598,0.793457
2024-12-31 11:28:35.613369,-0.005127,-0.006226,1.009033,-3.234863,0.976562,0.793457
2024-12-31 11:28:35.621369,-0.005737,-0.005615,1.008789,-3.417969,0.976562,1.037598
2024-12-31 11:28:35.629369,-0.004639,-0.007812,1.008667,-3.356934,1.159668,1.464844
2024-12-31 11:28:35.638369,-0.000977,-0.010986,1.011108,-3.479004,1.037598,1.953125
2024-12-31 11:28:35.646369,-0.008179,-0.007446,1.008667,-2.990723,1.464844,4.577637
2024-12-31 11:28:35.655369,-0.007324,-0.004028,1.009766,-3.112793,1.403809,3.601074
2024-12-31 11:28:35.663369,-0.008423,-0.005371,1.008911,-3.173828,1.220703,2.624512
2024-12-31 11:28:35.672369,-0.008301,-0.005371,1.008789,-3.051758,1.159668,2.746582
2024-12-31 11:28:35.680369,-0.006714,-0.006958,1.008911,-3.051758,1.098633,2.685547
2024-12-31 11:28:35.689369,-0.005737,-0.008911,1.008667,-3.295898,1.098633,2.685547
2024-12-31 11:28:35.697369,-0.003662,-0.011475,1.008179,-2.990723,1.159668,3.845215
2024-12-31 11:28:35.706369,-0.006104,-0.006226,1.008667,-3.295898,1.159668,6.164551
2024-12-31 11:28:35.714369,-0.008301,-0.000732,1.009155,-2.990723,1.159668,6.530762
2024-12-31 11:28:35.723369,-0.006592,-0.004028,1.008667,-2.624512,1.037598,3.540039
2024-12-31 11:28:35.731369,-0.006348,-0.006226,1.009766,-2.929688,0.854492,1.892090
2024-12-31 11:28:35.739369,-0.004761,-0.006592,1.009888,-3.479004,0.793457,1.281738
2024-12-31 11:28:35.748369,-0.006714,-0.007446,1.008789,-3.234863,0.793457,1.281738
2024-12-31 11:28:35.756369,-0.007568,-0.006836,1.010376,-3.234863,0.976562,1.647949
2024-12-31 11:28:35.765369,-0.009155,-0.007202,1.008667,-3.295898,0.915527,1.770020
2024-12-31 11:28:35.773369,-0.008057,-0.007446,1.010010,-3.295898,0.915527,1.586914
2024-12-31 11:28:35.782369,-0.007568,-0.006104,1.011841,-2.868652,0.915527,1.281738
2024-12-31 11:28:35.790369,-0.007202,-0.005005,1.009155,-3.234863,0.793457,1.098633
2024-12-31 11:28:35.799369,-0.006714,-0.005615,1.009888,-2.868652,0.793457,0.366211
2024-12-31 11:28:35.807369,-0.005859,-0.004639,1.009033,-2.563477,0.793457,0.000000
2024-12-31 11:28:35.816369,-0.005737,-0.005127,1.008545,-2.868652,0.793457,-0.305176
2024-12-31 11:28:35.824369,-0.005249,-0.005737,1.008911,-2.746582,0.854492,-0.488281
2024-12-31 11:28:35.833369,-0.005249,-0.006714,1.009888,-2.563477,0.793457,-0.610352
2024-12-31 11:28:35.841369,-0.005249,-0.006592,1.009888,-2.807617,0.793457,-0.671387
2024-12-31 11:28:35.849369,-0.006470,-0.007446,1.010132,-2.563477,0.793457,-0.488281
2024-12-31 11:28:35.858369,-0.007446,-0.007324,1.009766,-2.746582,0.793457,-0.488281
2024-12-31 11:28:35.866369,-0.006470,-0.007568,1.009155,-2.807617,0.732422,-0.488281
2024-12-31 11:28:35.875369,-0.005981,-0.007690,1.010010,-2.746582,0.854492,-0.488281
2024-12-31 11:28:35.883369,-0.006226,-0.008057,1.010010,-2.563477,0.976562,-0.366211
2024-12-31 11:28:35.892369,-0.005859,-0.007935,1.009888,-2.868652,0.793457,-0.305176
2024-12-31 11:28:35.900369,-0.005615,-0.006470,1.008667,-3.112793,0.793457,-0.244141
2024-12-31 11:28:35.909369,-0.005127,-0.006470,1.008301,-2.807617,0.793457,-0.122070
2024-12-31 11:28:35.917369,-0.004883,-0.007080,1.009521,-2.746582,0.793457,0.061035
2024-12-31 11:28:35.926369,-0.005737,-0.007812,1.009521,-2.685547,0.854492,0.244141
2024-12-31 11:28:35.934369,-0.006226,-0.007690,1.009399,-2.807617,0.915527,0.671387
2024-12-31 11:28:35.943369,-0.006958,-0.007202,1.009155,-2.868652,0.793457,0.976562
2024-12-31 11:28:35.951369,-0.006836,-0.005859,1.009766,-3.112793,0.854492,0.793457
2024-12-31 11:28:35.960369,-0.007812,-0.006958,1.010376,-2.929688,0.915527,0.366211
2024-12-31 11:28:35.968369,-0.006958,-0.006104,1.009644,-2.868652,0.793457,0.183105
2024-12-31 11:28:35.976369,-0.006592,-0.006592,1.008789,-2.868652,0.732422,0.183105
2024-12-31 11:28:35.985369,-0.006470,-0.008789,1.009399,-2.807617,0.793457,0.488281
2024-12-31 11:28:35.993369,-0.005493,-0.009033,1.008911,-2.868652,0.732422,0.732422
2024-12-31 11:28:36.002369,-0.005859,-0.010132,1.009521,-3.356934,0.732422,1.220703
2024-12-31 11:28:36.010369,-0.000610,-0.005737,1.009399,-2.990723,0.854492,1.892090
2024-12-31 11:28:36.019369,-0.009033,-0.010742,1.010010,-3.112793,0.915527,4.333496
2024-12-31 11:28:36.027369,-0.008179,-0.006348,1.009399,-3.112793,0.854492,3.723145
2024-12-31 11:28:36.036369,-0.006348,-0.005371,1.008911,-2.990723,0.793457,1.525879
2024-12-31 11:28:36.044369,-0.006226,-0.006348,1.007935,-3.234863,0.854492,1.098633
2024-12-31 11:28:36.053369,-0.009155,-0.007935,1.008789,-3.356934,0.671387,1.281738
2024-12-31 11:28:36.061369,-0.009399,-0.009644,1.009521,-3.051758,0.671387,1.159668
2024-12-31 11:28:36.070369,-0.007935,-0.007812,1.009033,-3.173828,0.732422,0.366211
2024-12-31 11:28:36.078369,-0.007812,-0.009155,1.009399,-3.051758,0.671387,0.305176
2024-12-31 11:28:36.087369,-0.007324,-0.007202,1.009399,-2.868652,0.793457,0.183105
2024-12-31 11:28:36.095369,-0.007446,-0.007324,1.009033,-2.868652,0.732422,-0.305176
2024-12-31 11:28:36.103369,-0.006226,-0.007324,1.009277,-3.417969,0.854492,-0.366211
2024-12-31 11:28:36.112369,-0.006714,-0.006592,1.008667,-3.051758,0.854492,-0.488281
2024-12-31 11:28:36.120369,-0.006470,-0.007202,1.008179,-2.807617,0.854492,-0.488281
2024-12-31 11:28:36.129369,-0.007202,-0.006836,1.008911,-2.685547,0.793457,-0.549316
2024-12-31 11:28:36.137369,-0.007324,-0.006714,1.009766,-2.990723,0.793457,-0.549316
2024-12-31 11:28:36.146369,-0.007446,-0.007324,1.010620,-2.868652,0.793457,-0.427246
2024-12-31 11:28:36.154369,-0.007812,-0.007568,1.008545,-3.173828,0.793457,-0.427246
2024-12-31 11:28:36.163369,-0.007935,-0.007446,1.009033,-2.807617,0.915527,-0.366211
2024-12-31 11:28:36.171369,-0.008301,-0.007812,1.008301,-3.173828,0.915527,-0.549316
2024-12-31 11:28:36.180369,-0.007568,-0.008179,1.008179,-2.746582,0.915527,-0.610352
2024-12-31 11:28:36.188369,-0.006958,-0.008179,1.010132,-2.929688,0.976562,-0.671387
2024-12-31 11:28:36.197369,-0.007812,-0.008179,1.010498,-3.173828,0.976562,-0.610352
2024-12-31 11:28:36.205369,-0.007080,-0.008789,1.009766,-3.295898,0.915527,-0.671387
2024-12-31 11:28:36.213369,-0.006958,-0.009155,1.009277,-3.234863,0.854492,-0.671387
2024-12-31 11:28:36.222369,-0.006348,-0.007690,1.009644,-2.990723,0.854492,-0.610352
2024-12-31 11:28:36.230369,-0.005981,-0.006104,1.009399,-3.051758,0.854492,-0.610352
2024-12-31 11:28:36.239369,-0.005859,-0.007202,1.007935,-3.051758,0.793457,-0.793457
2024-12-31 11:28:36.247369,-0.006592,-0.006958,1.009766,-2.990723,0.793457,-0.732422
2024-12-31 11:28:36.256369,-0.006714,-0.007202,1.008789,-2.990723,0.854492,-0.732422
2024-12-31 11:28:36.264369,-0.006958,-0.006958,1.009644,-2.990723,0.854492,-0.732422
2024-12-31 11:28:36.273369,-0.007324,-0.005737,1.008179,-2.807617,0.793457,-0.732422
2024-12-31 11:28:36.281369,-0.006348,-0.007202,1.009399,-2.746582,0.915527,-0.671387
2024-12-31 11:28:36.290369,-0.007080,-0.009155,1.009399,-2.746582,0.854492,-0.671387
2024-12-31 11:28:36.298369,-0.007446,-0.007690,1.008911,-2.868652,0.915527,-0.671387
2024-12-31 11:28:36.307369,-0.007446,-0.008057,1.008667,-3.356934,0.854492,-0.732422
2024-12-31 11:28:36.315369,-0.006592,-0.007202,1.009521,-3.479004,0.854492,-0.732422
2024-12-31 11:28:36.324369,-0.006348,-0.006470,1.009277,-2.929688,0.793457,-0.671387
2024-12-31 11:28:36.332369,-0.007080,-0.007812,1.008789,-2.868652,0.793457,-0.671387
2024-12-31 11:28:36.340369,-0.006958,-0.006592,1.010010,-2.868652,0.671387,-0.732422
2024-12-31 11:28:36.349369,-0.007446,-0.007080,1.008545,-2.929688,0.793457,-0.732422
2024-12-31 11:28:36.357369,-0.006958,-0.006836,1.008667,-2.868652,0.793457,-0.671387
2024-12-31 11:28:36.366369,-0.008179,-0.008423,1.008423,-2.990723,0.915527,-0.671387
2024-12-31 11:28:36.374369,-0.007812,-0.008423,1.009766,-2.929688,0.854492,-0.793457
2024-12-31 11:28:36.383369,-0.008057,-0.007812,1.008789,-3.173828,0.854492,-0.793457
2024-12-31 11:28:36.391369,-0.007935,-0.007324,1.008545,-2.990723,0.793457,-0.793457
2024-12-31 11:28:36.400369,-0.006226,-0.007812,1.008057,-2.929688,0.854492,-0.854492
2024-12-31 11:28:36.408369,-0.006104,-0.008179,1.008301,-3.173828,0.854492,-0.854492
2024-12-31 11:28:36.417369,-0.006836,-0.007690,1.008911,-3.234863,0.732422,-0.854492
2024-12-31 11:28:36.425369,-0.006348,-0.007690,1.009033,-2.929688,0.793457,-0.732422
2024-12-31 11:28:36.434369,-0.006348,-0.008301,1.009033,-2.929688,0.793457,-0.854492
2024-12-31 11:28:36.442369,-0.006348,-0.007568,1.009033,-2.990723,0.732422,-0.854492
2024-12-31 11:28:36.451369,-0.006226,-0.007568,1.010376,-3.112793,0.671387,-0.732422
2024-12-31 11:28:36.459369,-0.008301,-0.007202,1.008667,-3.051758,0.671387,-0.732422
2024-12-31 11:28:36.467369,-0.007568,-0.006592,1.009766,-3.601074,0.732422,-0.732422
2024-12-31 11:28:36.476369,-0.007080,-0.007446,1.008789,-2.929688,0.854492,-0.671387
2024-12-31 11:28:36.484369,-0.007446,-0.008423,1.010132,-2.929688,0.976562,-0.671387
2024-12-31 11:28:36.493369,-0.006714,-0.008423,1.008789,-3.173828,0.854492,-0.732422
2024-12-31 11:28:36.501369,-0.007568,-0.007568,1.008545,-3.051758,0.793457,-0.793457
2024-12-31 11:28:36.510369,-0.006836,-0.008789,1.009399,-2.929688,0.854492,-0.671387
2024-12-31 11:28:36.518369,-0.006470,-0.008057,1.009033,-3.356934,0.793457,-0.671387
2024-12-31 11:28:36.527369,-0.006226,-0.007935,1.008911,-3.173828,0.854492,-0.610352
2024-12-31 11:28:36.535369,-0.007324,-0.007324,1.009277,-3.234863,0.915527,-0.610352
2024-12-31 11:28:36.544369,-0.006226,-0.007935,1.008789,-3.234863,0.976562,-0.427246
2024-12-31 11:28:36.552369,-0.008301,-0.007202,1.009521,-3.295898,0.915527,-0.427246
2024-12-31 11:28:36.561369,-0.008301,-0.007935,1.010864,-3.356934,0.793457,-0.488281
2024-12-31 11:28:36.569369,-0.008179,-0.007812,1.009155,-3.662109,0.854492,-0.366211
2024-12-31 11:28:36.577369,-0.007202,-0.009033,1.009033,-3.295898,0.915527,-0.305176
2024-12-31 11:28:36.586369,-0.007568,-0.010376,1.009155,-3.234863,0.976562,-0.244141
2024-12-31 11:28:36.594369,-0.008301,-0.012573,1.009888,-3.356934,1.037598,-0.061035
2024-12-31 11:28:36.603369,-0.009155,-0.015869,1.010010,-3.540039,1.098633,0.732422
2024-12-31 11:28:36.611369,-0.010498,-0.019653,1.009521,-3.662109,1.159668,2.075195
2024-12-31 11:28:36.620369,-0.015625,-0.039917,1.009155,-4.089355,1.037598,3.723145
2024-12-31 11:28:36.628369,-0.016479,-0.083374,1.009155,-3.479004,1.098633,6.042480
2024-12-31 11:28:36.637369,0.004639,0.065308,1.009033,-3.356934,0.915527,5.187988
2024-12-31 11:28:36.645369,-0.025269,-0.023438,1.009766,-3.479004,0.976562,-1.708984
2024-12-31 11:28:36.654369,-0.048828,-0.065796,1.009521,-2.502441,1.220703,-2.502441
2024-12-31 11:28:36.662369,0.018188,0.000854,1.013428,-1.770020,1.647949,-0.183105
2024-12-31 11:28:36.671369,-0.020630,-0.015869,1.008667,-2.197266,1.647949,1.770020
2024-12-31 11:28:36.679369,0.005859,0.034424,1.008911,-3.356934,1.098633,-0.366211
2024-12-31 11:28:36.688369,0.004395,0.015259,1.010254,-4.455566,1.281738,-5.249023
2024-12-31 11:28:36.696369,-0.033447,-0.067383,1.010376,-4.455566,1.525879,-3.784180
2024-12-31 11:28:36.704369,0.030029,-0.021851,1.011108,-2.685547,1.708984,2.014160
2024-12-31 11:28:36.713369,-0.054443,-0.131714,1.003418,-2.319336,1.464844,5.554199
2024-12-31 11:28:36.721369,0.035278,0.051392,1.014893,0.183105,0.610352,4.455566
2024-12-31 11:28:36.730369,0.009888,0.083618,1.010986,-2.319336,0.366211,2.868652
2024-12-31 11:28:36.738369,-0.005981,-0.026855,1.012451,-3.295898,0.610352,2.746582
2024-12-31 11:28:36.747369,-0.017700,-0.087769,1.010132,-3.662109,0.488281,6.469727
2024-12-31 11:28:36.755369,-0.004028,-0.084717,1.008057,-2.197266,-0.610352,7.446289
2024-12-31 11:28:36.764369,-0.006226,-0.100952,1.002808,0.854492,-1.342773,5.737305
2024-12-31 11:28:36.772369,0.010986,0.084717,1.014282,-0.061035,-0.366211,2.197266
2024-12-31 11:28:36.781369,-0.021362,-0.008057,1.011963,-2.929688,2.929688,-2.746582
2024-12-31 11:28:36.789369,0.023560,0.048706,1.022095,-3.601074,2.380371,6.530762
2024-12-31 11:28:36.798369,0.009399,-0.068481,1.006104,-5.615234,0.915527,9.277344
2024-12-31 11:28:36.806369,-0.025879,0.047974,1.013184,-4.089355,-0.305176,7.141113
2024-12-31 11:28:36.814369,0.009521,-0.000977,1.007568,-3.234863,0.305176,0.549316
2024-12-31 11:28:36.823369,0.007324,-0.090454,1.009888,-2.258301,2.319336,-0.976562
2024-12-31 11:28:36.831369,0.015747,-0.027710,1.010376,-1.708984,1.037598,8.972168
2024-12-31 11:28:36.840369,-0.013428,0.028320,1.009521,-1.708984,-1.159668,10.559082
2024-12-31 11:28:36.848369,-0.001953,-0.020264,1.007935,-2.197266,-0.244141,3.845215
2024-12-31 11:28:36.857369,-0.024048,0.006958,1.015869,-2.136230,1.892090,3.112793
2024-12-31 11:28:36.865369,-0.025635,-0.002197,1.007080,-6.042480,1.281738,8.300781
2024-12-31 11:28:36.874369,-0.004761,0.066650,1.008911,-7.263184,1.037598,5.737305
2024-12-31 11:28:36.882369,-0.009521,-0.031982,1.006104,-5.859375,2.075195,-0.793457
2024-12-31 11:28:36.891369,0.018433,-0.078247,1.011475,-3.295898,1.464844,0.366211
2024-12-31 11:28:36.899369,0.006958,-0.017456,1.005737,-1.708984,0.793457,3.173828
2024-12-31 11:28:36.908369,0.002319,0.093750,1.020264,-1.342773,0.976562,2.014160
2024-12-31 11:28:36.916369,-0.001099,0.056763,1.013428,-4.272461,2.197266,-1.647949
2024-12-31 11:28:36.925369,-0.026367,0.012817,1.013672,-4.882812,0.549316,1.708984
2024-12-31 11:28:36.933369,-0.012939,-0.088379,1.003540,-2.807617,0.427246,4.455566
2024-12-31 11:28:36.941369,0.005005,0.015625,1.012207,-1.342773,0.488281,2.990723
2024-12-31 11:28:36.950369,-0.008057,0.039062,1.009766,-3.417969,1.770020,-0.244141
2024-12-31 11:28:36.958369,-0.002197,-0.091309,1.005981,-5.859375,2.075195,-0.854492
2024-12-31 11:28:36.967369,-0.007446,0.041382,1.010132,-5.859375,1.953125,-0.915527
2024-12-31 11:28:36.975369,0.011475,-0.016113,1.016235,-4.089355,2.075195,-0.793457
2024-12-31 11:28:36.984369,-0.015381,-0.017944,1.009033,-3.356934,0.976562,-0.244141
2024-12-31 11:28:36.992369,-0.012451,-0.071045,1.006226,-0.610352,0.732422,1.708984
2024-12-31 11:28:37.001369,0.004150,-0.000244,1.007935,-1.586914,0.732422,2.441406
2024-12-31 11:28:37.009369,-0.012451,0.012573,1.011108,-2.990723,1.586914,-1.281738
2024-12-31 11:28:37.018369,0.003662,0.033203,1.011597,-4.577637,1.586914,-2.685547
2024-12-31 11:28:37.026369,-0.013916,-0.020996,1.004395,-4.211426,0.427246,0.488281
2024-12-31 11:28:37.035369,-0.018799,-0.059570,1.006348,-1.281738,0.122070,2.563477
2024-12-31 11:28:37.043369,0.005005,0.031616,1.014282,-2.197266,0.488281,1.281738
2024-12-31 11:28:37.051369,0.008545,-0.064575,1.003418,-3.112793,1.220703,-1.464844
2024-12-31 11:28:37.060369,0.003052,0.020874,1.014404,-4.394531,1.037598,-1.342773
2024-12-31 11:28:37.068369,-0.008423,-0.008301,1.010742,-3.051758,1.831055,-2.014160
2024-12-31 11:28:37.077369,-0.001099,-0.075928,1.005615,-1.831055,2.380371,-0.610352
2024-12-31 11:28:37.085369,-0.003052,-0.004395,1.007935,-1.037598,0.793457,3.051758
2024-12-31 11:28:37.094369,-0.024780,0.151001,1.012207,-2.197266,0.061035,3.540039
2024-12-31 11:28:37.102369,-0.010742,0.035400,1.009888,-5.554199,0.549316,1.037598
2024-12-31 11:28:37.111369,0.009888,-0.084595,1.010864,-4.577637,0.915527,-0.244141
2024-12-31 11:28:37.119369,0.018433,-0.126221,1.006226,-2.624512,0.854492,0.122070
2024-12-31 11:28:37.128369,0.028076,-0.029541,1.006470,-0.793457,0.732422,0.427246
2024-12-31 11:28:37.136369,-0.011841,0.008301,1.004150,1.098633,-0.244141,2.563477
2024-12-31 11:28:37.145369,0.004639,0.000732,1.008423,-0.183105,0.000000,2.319336
2024-12-31 11:28:37.153369,-0.010742,0.063477,1.010742,-4.089355,0.122070,3.417969
2024-12-31 11:28:37.162369,-0.024170,0.060059,1.011353,-3.723145,0.732422,0.915527
2024-12-31 11:28:37.170369,-0.013794,0.020020,1.012451,-2.929688,1.342773,-2.258301
2024-12-31 11:28:37.178369,0.009277,-0.090454,1.007568,-1.708984,0.976562,-2.868652
2024-12-31 11:28:37.187369,-0.008179,-0.060913,1.007690,-1.464844,0.793457,-1.586914
2024-12-31 11:28:37.195369,-0.004150,0.003662,1.012207,-2.685547,0.366211,0.244141
2024-12-31 11:28:37.204369,-0.041260,0.101074,1.016724,-3.967285,0.610352,-1.037598
2024-12-31 11:28:37.212369,-0.019897,0.055664,1.009521,-3.417969,0.732422,-2.014160
2024-12-31 11:28:37.221369,-0.008179,-0.002686,1.008301,-3.845215,0.915527,-1.342773
2024-12-31 11:28:37.229369,-0.000488,-0.021606,1.010254,-3.601074,1.098633,-1.098633
2024-12-31 11:28:37.238369,0.001465,-0.025757,1.009399,-3.356934,1.037598,-0.915527
2024-12-31 11:28:37.246369,0.000732,-0.042603,1.008179,-3.295898,0.854492,-0.732422
2024-12-31 11:28:37.255369,0.004272,-0.046875,1.008179,-2.197266,0.854492,-0.366211
2024-12-31 11:28:37.263369,-0.020264,0.021851,1.010376,-2.441406,0.671387,0.549316
2024-12-31 11:28:37.272369,-0.012329,0.004517,1.008057,-2.258301,0.427246,0.793457
2024-12-31 11:28:37.280369,-0.009399,-0.012329,1.008545,-2.319336,0.549316,-0.427246
2024-12-31 11:28:37.289369,-0.000977,-0.031982,1.009644,-2.258301,0.427246,-0.549316
2024-12-31 11:28:37.297369,-0.011230,0.010010,1.008057,-3.173828,0.305176,-1.525879
2024-12-31 11:28:37.305369,-0.012085,0.016846,1.010010,-3.234863,0.366211,-1.708984
2024-12-31 11:28:37.314369,-0.008179,-0.011963,1.009033,-3.112793,0.488281,-1.342773
2024-12-31 11:28:37.322369,-0.008423,-0.020630,1.008667,-3.356934,0.732422,-0.793457
2024-12-31 11:28:37.331369,-0.005371,-0.033447,1.008545,-3.234863,0.793457,-0.915527
2024-12-31 11:28:37.339369,0.000122,-0.009521,1.011597,-3.356934,0.915527,-0.061035
2024-12-31 11:28:37.348369,-0.013916,-0.009644,1.008667,-4.089355,0.732422,1.708984
2024-12-31 11:28:37.356369,-0.012329,0.011353,1.009033,-3.723145,0.610352,1.525879
2024-12-31 11:28:37.365369,-0.007690,0.000854,1.010132,-3.234863,0.732422,0.183105
2024-12-31 11:28:37.373369,-0.007690,-0.009521,1.008179,-3.173828,1.037598,0.000000
2024-12-31 11:28:37.382369,-0.007446,-0.035400,1.009155,-3.356934,1.098633,0.183105
2024-12-31 11:28:37.390369,-0.004639,-0.045288,1.008423,-3.234863,1.098633,1.037598
2024-12-31 11:28:37.399369,-0.006592,0.010620,1.010620,-3.784180,0.854492,2.563477
2024-12-31 11:28:37.407369,-0.007812,-0.022095,1.009521,-3.356934,0.854492,3.112793
2024-12-31 11:28:37.416369,-0.015625,-0.041992,1.008423,-2.563477,0.610352,2.990723
2024-12-31 11:28:37.424369,-0.008911,0.013794,1.009766,-1.953125,0.366211,3.540039
2024-12-31 11:28:37.432369,-0.004395,0.038208,1.009644,-2.075195,0.793457,1.831055
2024-12-31 11:28:37.441369,-0.008057,-0.000122,1.009766,-2.868652,1.403809,0.549316
2024-12-31 11:28:37.449369,-0.011230,-0.004028,1.008911,-3.540039,1.098633,0.915527
2024-12-31 11:28:37.458369,-0.002319,0.008423,1.008057,-3.112793,0.976562,0.854492
2024-12-31 11:28:37.466369,-0.001953,0.002197,1.009033,-2.929688,1.037598,0.793457
2024-12-31 11:28:37.475369,-0.004883,-0.005005,1.008301,-2.868652,1.037598,0.122070
2024-12-31 11:28:37.483369,-0.005249,-0.007080,1.009399,-2.624512,0.976562,-0.061035
2024-12-31 11:28:37.492369,-0.007690,-0.008179,1.009155,-2.685547,0.793457,-0.061035
2024-12-31 11:28:37.500369,-0.009277,-0.008667,1.008179,-2.563477,0.793457,0.183105
2024-12-31 11:28:37.509369,-0.010132,-0.008301,1.008789,-2.929688,0.793457,0.732422
2024-12-31 11:28:37.517369,-0.012085,-0.007568,1.009644,-2.807617,0.732422,1.220703
2024-12-31 11:28:37.526369,-0.010132,-0.006470,1.008667,-2.746582,0.732422,1.708984
2024-12-31 11:28:37.534369,-0.010498,-0.004272,1.009888,-2.563477,0.854492,1.220703
2024-12-31 11:28:37.542369,-0.020630,0.004639,1.008179,-2.319336,0.610352,1.098633
2024-12-31 11:28:37.551369,-0.012573,-0.002930,1.007812,-2.502441,0.610352,1.831055
2024-12-31 11:28:37.559369,0.001953,-0.012695,1.009033,-2.563477,0.610352,0.793457
2024-12-31 11:28:37.568369,-0.012939,-0.001343,1.009399,-2.319336,0.732422,-0.305176
2024-12-31 11:28:37.576369,-0.038086,0.047241,1.008301,-2.258301,0.488281,-0.366211
2024-12-31 11:28:37.585369,-0.018555,0.016235,1.008545,-2.136230,0.671387,-0.427246
2024-12-31 11:28:37.593369,-0.017700,0.016235,1.007812,-2.563477,0.976562,0.488281
2024-12-31 11:28:37.602369,0.002808,-0.002563,1.011963,-3.112793,1.220703,0.427246
2024-12-31 11:28:37.610369,-0.015869,0.008545,1.007446,-3.417969,1.464844,-1.708984
2024-12-31 11:28:37.619369,-0.009155,0.024414,1.010010,-3.356934,1.342773,-4.333496
2024-12-31 11:28:37.627369,-0.026245,-0.006958,1.007812,-3.173828,1.159668,-6.103516
2024-12-31 11:28:37.636369,0.007202,0.001221,1.010254,-4.150391,0.305176,-6.225586
2024-12-31 11:28:37.644369,0.006714,-0.011719,1.009277,-4.882812,0.732422,-1.342773
2024-12-31 11:28:37.653369,0.023315,-0.007812,1.009644,-3.967285,1.281738,-1.037598
2024-12-31 11:28:37.661369,-0.009277,-0.005249,1.008545,-3.784180,1.464844,-8.483887
2024-12-31 11:28:37.669369,-0.023926,0.011108,1.005737,-3.295898,0.549316,-9.460449
2024-12-31 11:28:37.678369,-0.018188,-0.027588,1.013794,-4.760742,-0.183105,-4.699707
2024-12-31 11:28:37.686369,0.014893,0.024536,1.012329,-3.295898,0.488281,-0.915527
2024-12-31 11:28:37.695369,0.004639,0.033936,1.007202,-2.014160,1.586914,-2.868652
2024-12-31 11:28:37.703369,0.003784,-0.012207,1.007935,-2.990723,2.502441,-6.835938
2024-12-31 11:28:37.712369,-0.001343,-0.114746,1.014038,-5.126953,2.380371,-6.286621
2024-12-31 11:28:37.720369,-0.015625,0.013428,1.004761,-4.272461,1.281738,-6.774902
2024-12-31 11:28:37.729369,-0.000977,-0.021606,1.010620,-4.028320,1.281738,-6.591797
2024-12-31 11:28:37.737369,-0.013672,0.005249,1.010010,-2.746582,1.647949,-3.723145
2024-12-31 11:28:37.746369,0.009521,-0.059814,1.010254,-2.136230,2.014160,-5.859375
2024-12-31 11:28:37.754369,-0.008911,-0.048096,1.009644,-1.770020,2.014160,-5.554199
2024-12-31 11:28:37.763369,0.001099,-0.030762,1.006836,-2.868652,1.159668,-5.920410
2024-12-31 11:28:37.771369,-0.006592,0.038208,1.009399,-3.540039,1.159668,-3.967285
2024-12-31 11:28:37.779369,-0.012573,0.022705,1.007812,-4.272461,1.098633,-2.746582
2024-12-31 11:28:37.788369,-0.003052,0.016602,1.007568,-4.699707,0.976562,-4.577637
2024-12-31 11:28:37.796369,-0.008789,-0.024536,1.009644,-3.784180,0.732422,-8.605957
2024-12-31 11:28:37.805369,0.000732,-0.011475,1.006592,-3.723145,0.732422,-9.338379
2024-12-31 11:28:37.813369,0.008057,-0.105591,1.011108,-3.601074,1.342773,-5.554199
2024-12-31 11:28:37.822369,0.001953,-0.074463,1.007935,-2.807617,1.342773,-4.943848
2024-12-31 11:28:37.830369,-0.001587,0.000732,1.008667,-2.868652,1.403809,-4.760742
2024-12-31 11:28:37.839369,-0.000977,0.010742,1.009888,-3.051758,1.220703,-4.333496
2024-12-31 11:28:37.847369,0.000610,0.052368,1.007080,-3.662109,1.220703,-5.249023
2024-12-31 11:28:37.856369,-0.021851,0.082031,1.008423,-4.516602,1.342773,-4.760742
2024-12-31 11:28:37.864369,-0.032104,-0.012329,1.006470,-3.479004,0.915527,-3.967285
2024-12-31 11:28:37.873369,-0.000610,-0.014648,1.007080,-2.685547,-0.183105,-8.300781
2024-12-31 11:28:37.881369,0.011108,0.011597,1.011597,-2.502441,-0.366211,-8.850098
2024-12-31 11:28:37.890369,0.012939,0.041016,1.008545,-1.220703,0.793457,-3.784180
2024-12-31 11:28:37.898369,-0.013306,-0.063354,1.011597,-1.159668,2.563477,-2.746582
2024-12-31 11:28:37.906369,0.003052,0.011963,1.005737,-3.112793,1.770020,-6.164551
2024-12-31 11:28:37.915369,-0.004517,-0.008423,1.011841,-3.112793,0.915527,-9.826660
2024-12-31 11:28:37.923369,-0.028564,0.026489,1.006226,-2.807617,1.037598,-10.498047
2024-12-31 11:28:37.932369,0.016846,-0.026733,1.003906,-2.868652,1.037598,-10.314941
2024-12-31 11:28:37.940369,-0.003662,0.036133,1.006470,-4.943848,0.122070,-9.460449
2024-12-31 11:28:37.949369,-0.033447,-0.051880,1.016235,-5.126953,0.000000,-7.568359
2024-12-31 11:28:37.957369,-0.005127,-0.068848,1.011719,-1.098633,0.244141,-8.056641
2024-12-31 11:28:37.966369,0.015991,0.018433,1.007324,0.000000,-0.122070,-11.047363
2024-12-31 11:28:37.974369,-0.011475,-0.045532,1.011597,-1.586914,-0.183105,-9.216309
2024-12-31 11:28:37.983369,0.002075,0.012207,1.011108,-3.967285,-0.183105,-8.605957
2024-12-31 11:28:37.991369,-0.038818,0.001953,1.008179,-5.554199,1.281738,-4.333496
2024-12-31 11:28:38.000369,-0.001587,-0.162109,1.009766,-3.417969,3.417969,-2.685547
2024-12-31 11:28:38.008369,0.007324,-0.153198,1.006226,-0.549316,0.671387,-12.084961
2024-12-31 11:28:38.016369,-0.010132,-0.031006,1.010742,-1.220703,-0.366211,-11.779785
2024-12-31 11:28:38.025369,-0.000732,0.077393,1.010010,-2.136230,-0.061035,-5.676270
2024-12-31 11:28:38.033369,-0.021118,0.039917,1.007935,-3.479004,0.305176,-3.662109
2024-12-31 11:28:38.042369,-0.024536,0.059937,1.014893,-4.333496,0.061035,0.610352
2024-12-31 11:28:38.050369,0.000000,-0.001221,1.004028,-4.821777,1.464844,4.028320
2024-12-31 11:28:38.059369,0.000610,-0.089478,1.009644,-3.845215,2.136230,-3.723145
2024-12-31 11:28:38.067369,0.008667,-0.157349,1.006104,-2.014160,0.732422,-7.568359
2024-12-31 11:28:38.076369,-0.004883,-0.036743,1.011230,-2.868652,0.183105,-5.126953
2024-12-31 11:28:38.084369,-0.006470,-0.006958,1.009766,-2.868652,0.732422,-0.915527
2024-12-31 11:28:38.093369,-0.005737,-0.009277,1.008545,-2.990723,0.915527,-0.915527
2024-12-31 11:28:38.101369,-0.006226,-0.010864,1.008911,-2.685547,0.610352,-1.220703
2024-12-31 11:28:38.110369,-0.005981,-0.011230,1.008301,-2.929688,0.793457,-1.220703
2024-12-31 11:28:38.118369,-0.006104,-0.011719,1.009888,-3.295898,0.976562,-1.159668
2024-12-31 11:28:38.127369,-0.005737,-0.011353,1.008911,-3.601074,0.793457,-0.976562
2024-12-31 11:28:38.135369,-0.005981,-0.009766,1.008423,-3.295898,0.793457,-0.915527
2024-12-31 11:28:38.143369,-0.004517,-0.009399,1.008057,-3.173828,0.793457,-0.793457
2024-12-31 11:28:38.152369,-0.005493,-0.009155,1.007690,-3.051758,0.915527,-0.732422
2024-12-31 11:28:38.160369,-0.005493,-0.009888,1.007324,-2.990723,1.037598,-0.915527
2024-12-31 11:28:38.169369,-0.006226,-0.007568,1.009155,-3.051758,0.793457,-0.854492
2024-12-31 11:28:38.177369,-0.005371,-0.005981,1.009155,-3.417969,0.732422,-1.098633
2024-12-31 11:28:38.186369,-0.006104,-0.007080,1.008545,-2.990723,0.732422,-1.403809
2024-12-31 11:28:38.194369,-0.006714,-0.006714,1.009399,-2.807617,0.610352,-1.342773
2024-12-31 11:28:38.203369,-0.006592,-0.001709,1.009399,-3.051758,0.488281,-1.159668
2024-12-31 11:28:38.211369,-0.010132,0.007324,1.009155,-2.746582,0.488281,-0.854492
2024-12-31 11:28:38.220369,-0.001465,0.095581,1.012817,-2.807617,0.427246,0.671387
2024-12-31 11:28:38.228369,-0.023682,0.038208,1.008423,-2.929688,0.488281,4.028320
2024-12-31 11:28:38.237369,-0.007568,0.051025,1.009155,-3.051758,0.610352,1.159668
2024-12-31 11:28:38.245369,-0.024902,0.040649,1.006104,-3.906250,1.342773,0.244141
2024-12-31 11:28:38.254369,-0.008667,-0.014404,1.012939,-3.234863,2.136230,2.624512
2024-12-31 11:28:38.262369,0.023438,-0.122559,1.008911,-1.708984,0.976562,-2.929688
2024-12-31 11:28:38.270369,0.002197,-0.084351,1.009644,-1.831055,-0.122070,-9.460449
2024-12-31 11:28:38.279369,-0.015869,0.073608,1.004883,-2.868652,0.854492,-6.225586
2024-12-31 11:28:38.287369,-0.030273,0.154053,1.008667,-5.615234,1.831055,-0.549316
2024-12-31 11:28:38.296369,-0.004639,0.028076,0.998657,-4.821777,1.586914,-0.915527
2024-12-31 11:28:38.304369,0.023193,-0.140503,1.013794,-1.586914,0.549316,-2.075195
2024-12-31 11:28:38.313369,0.010132,-0.055420,1.008423,-1.892090,-0.549316,-5.676270
2024-12-31 11:28:38.321369,-0.017456,0.001099,1.010742,-4.089355,0.305176,-3.845215
2024-12-31 11:28:38.330369,0.005371,-0.030396,1.004028,-4.638672,0.915527,-1.342773
2024-12-31 11:28:38.338369,-0.003296,-0.053589,1.007324,-5.493164,0.793457,-1.647949
2024-12-31 11:28:38.347369,-0.004272,-0.024536,1.009766,-4.394531,0.732422,-0.061035
2024-12-31 11:28:38.355369,-0.007446,0.048218,1.005859,-4.028320,1.281738,-1.159668
2024-12-31 11:28:38.364369,-0.021606,-0.091797,1.012451,-2.685547,1.708984,-2.441406
2024-12-31 11:28:38.372369,-0.004517,-0.018921,1.011108,-2.136230,1.464844,-3.295898
2024-12-31 11:28:38.380369,0.001709,0.002441,1.006958,-3.234863,1.037598,-2.929688
2024-12-31 11:28:38.389369,-0.014404,-0.020020,1.010864,-4.638672,0.976562,-4.028320
2024-12-31 11:28:38.397369,-0.004883,-0.052734,1.009033,-4.760742,0.976562,-2.075195
2024-12-31 11:28:38.406369,-0.006348,-0.046631,1.008057,-3.662109,0.915527,-2.014160
2024-12-31 11:28:38.414369,-0.007690,-0.040161,1.010864,-3.540039,0.732422,-3.051758
2024-12-31 11:28:38.423369,-0.006348,-0.001343,1.008301,-3.234863,0.732422,-3.479004
2024-12-31 11:28:38.431369,-0.005249,-0.009644,1.009888,-3.295898,0.732422,-3.173828
2024-12-31 11:28:38.440369,-0.004150,-0.033936,1.008423,-3.479004,0.854492,-2.624512
2024-12-31 11:28:38.448369,-0.004883,-0.026245,1.009766,-2.990723,0.915527,-1.892090
2024-12-31 11:28:38.457369,-0.005615,-0.013428,1.010132,-3.112793,0.793457,-1.281738
2024-12-31 11:28:38.465369,-0.005981,-0.009521,1.008301,-3.112793,0.793457,-1.037598
2024-12-31 11:28:38.474369,-0.006592,-0.008911,1.008545,-2.929688,0.915527,-0.976562
2024-12-31 11:28:38.482369,-0.006958,-0.006714,1.010498,-3.356934,0.732422,-0.915527
2024-12-31 11:28:38.491369,-0.005859,-0.006348,1.008789,-3.356934,0.671387,-0.915527
2024-12-31 11:28:38.499369,-0.005615,-0.005493,1.008545,-2.929688,0.793457,-0.915527
2024-12-31 11:28:38.507369,-0.005493,-0.004028,1.009888,-3.051758,0.671387,-1.098633
2024-12-31 11:28:38.516369,-0.005005,-0.007446,1.008545,-3.051758,0.671387,-1.342773
2024-12-31 11:28:38.524369,-0.003906,-0.010498,1.007690,-3.051758,0.671387,-1.464844
2024-12-31 11:28:38.533369,-0.005005,-0.007202,1.009399,-2.990723,0.732422,-1.647949
2024-12-31 11:28:38.541369,-0.006104,-0.006836,1.008423,-3.356934,0.610352,-1.586914
2024-12-31 11:28:38.550369,-0.006226,-0.007568,1.008545,-3.234863,0.671387,-1.525879
2024-12-31 11:28:38.558369,-0.007202,-0.003784,1.009277,-3.051758,0.732422,-1.403809
2024-12-31 11:28:38.567369,-0.006592,-0.004272,1.009644,-3.173828,0.854492,-1.220703
2024-12-31 11:28:38.575369,-0.009155,0.015625,1.008789,-3.173828,0.854492,-0.976562
2024-12-31 11:28:38.584369,-0.012329,0.030762,1.009033,-3.723145,0.854492,-0.976562
2024-12-31 11:28:38.592369,-0.002563,-0.016235,1.009399,-4.211426,0.671387,-1.892090
2024-12-31 11:28:38.601369,-0.002563,-0.018799,1.009155,-3.845215,0.305176,-3.601074
2024-12-31 11:28:38.609369,-0.003052,0.000732,1.008789,-3.417969,0.305176,-3.662109
2024-12-31 11:28:38.618369,-0.001465,-0.015015,1.009277,-3.417969,0.244141,-2.807617
2024-12-31 11:28:38.626369,-0.003540,0.000366,1.008301,-3.417969,0.305176,-2.563477
2024-12-31 11:28:38.634369,-0.004883,0.001953,1.008667,-3.784180,0.549316,-2.197266
2024-12-31 11:28:38.643369,-0.002441,0.002563,1.007812,-3.967285,0.488281,-3.051758
2024-12-31 11:28:38.651369,-0.010498,0.017944,1.008179,-4.333496,0.366211,-3.540039
2024-12-31 11:28:38.660369,-0.005981,-0.000488,1.008057,-3.906250,0.427246,-2.807617
2024-12-31 11:28:38.668369,-0.001099,-0.020752,1.009888,-3.173828,0.549316,-3.234863
2024-12-31 11:28:38.677369,-0.007935,-0.003296,1.008545,-2.502441,1.098633,0.061035
2024-12-31 11:28:38.685369,-0.004883,0.006226,1.006470,-2.746582,1.220703,-0.305176
2024-12-31 11:28:38.694369,-0.001221,-0.060913,1.008179,-2.014160,0.976562,-2.868652
2024-12-31 11:28:38.702369,-0.002563,-0.048828,1.008423,-2.014160,0.793457,-2.990723
2024-12-31 11:28:38.711369,-0.004028,-0.038452,1.009644,-2.136230,0.854492,-2.136230
2024-12-31 11:28:38.719369,-0.006226,-0.018555,1.009277,-2.319336,0.793457,-1.342773
2024-12-31 11:28:38.728369,-0.005737,-0.013550,1.008423,-2.563477,0.732422,-1.098633
2024-12-31 11:28:38.736369,-0.006348,-0.015015,1.008057,-2.502441,0.793457,-0.976562
2024-12-31 11:28:38.744369,-0.007202,-0.011963,1.008057,-2.685547,0.671387,-0.915527
2024-12-31 11:28:38.753369,-0.007202,-0.010864,1.008789,-3.051758,0.610352,-0.793457
2024-12-31 11:28:38.761369,-0.006836,-0.010010,1.009399,-2.990723,0.793457,-0.732422
2024-12-31 11:28:38.770369,-0.006104,-0.009399,1.008545,-3.234863,0.732422,-0.671387
2024-12-31 11:28:38.778369,-0.006104,-0.009033,1.008057,-3.112793,0.793457,-0.793457
2024-12-31 11:28:38.787369,-0.005127,-0.008423,1.008667,-3.112793,0.915527,-0.732422
2024-12-31 11:28:38.795369,-0.005981,-0.007812,1.009277,-3.234863,0.976562,-0.732422
2024-12-31 11:28:38.804369,-0.005615,-0.007690,1.008179,-3.479004,0.854492,-0.671387
2024-12-31 11:28:38.812369,-0.004883,-0.007446,1.009277,-3.173828,0.915527,-0.549316
2024-12-31 11:28:38.821369,-0.005371,-0.007690,1.008789,-3.051758,0.915527,-0.610352
2024-12-31 11:28:38.829369,-0.005127,-0.006958,1.009399,-2.929688,0.854492,-0.732422
2024-12-31 11:28:38.838369,-0.006470,-0.007568,1.008667,-2.868652,0.793457,-0.671387
2024-12-31 11:28:38.846369,-0.006836,-0.008423,1.010498,-2.807617,0.915527,-0.671387
2024-12-31 11:28:38.855369,-0.006348,-0.009033,1.009033,-3.234863,0.793457,-0.732422
2024-12-31 11:28:38.863369,-0.006714,-0.008423,1.009399,-2.746582,0.854492,-0.671387
2024-12-31 11:28:38.871369,-0.005981,-0.008301,1.009277,-2.685547,0.732422,-0.610352
2024-12-31 11:28:38.880369,-0.005615,-0.008789,1.009277,-3.112793,0.854492,-0.549316
2024-12-31 11:28:38.888369,-0.005981,-0.008423,1.009277,-3.295898,0.732422,-0.549316
2024-12-31 11:28:38.897369,-0.005249,-0.007690,1.010620,-3.051758,0.915527,-0.549316
2024-12-31 11:28:38.905369,-0.006958,-0.006226,1.009277,-3.234863,0.854492,-0.427246
2024-12-31 11:28:38.914369,-0.007202,-0.005249,1.009399,-3.051758,0.793457,-0.244141
2024-12-31 11:28:38.922369,-0.006348,-0.006348,1.008423,-2.746582,0.854492,0.061035
2024-12-31 11:28:38.931369,-0.006104,-0.007202,1.009033,-2.685547,0.732422,0.122070
2024-12-31 11:28:38.939369,-0.008301,-0.005737,1.009399,-2.807617,0.793457,0.183105
2024-12-31 11:28:38.948369,-0.005249,-0.008179,1.008545,-2.746582,0.732422,0.671387
2024-12-31 11:28:38.956369,-0.004272,-0.011108,1.009277,-2.685547,0.732422,0.854492
2024-12-31 11:28:38.965369,-0.005493,-0.010010,1.008667,-2.929688,0.793457,0.427246
2024-12-31 11:28:38.973369,-0.006958,-0.009155,1.009277,-2.868652,0.915527,0.061035
2024-12-31 11:28:38.981369,-0.007935,-0.006714,1.009033,-2.990723,0.732422,0.000000
2024-12-31 11:28:38.990369,-0.007935,-0.005981,1.009277,-3.112793,0.793457,0.427246
2024-12-31 11:28:38.998369,-0.010742,-0.002075,1.009521,-2.990723,0.793457,0.610352
2024-12-31 11:28:39.007369,-0.010864,0.000977,1.009644,-2.807617,0.915527,1.098633
2024-12-31 11:28:39.015369,0.000366,-0.020386,1.008179,-2.624512,1.037598,2.258301
2024-12-31 11:28:39.024369,-0.004517,-0.008667,1.009033,-2.807617,1.037598,0.244141
2024-12-31 11:28:39.032369,-0.005371,-0.008301,1.009277,-2.990723,0.854492,-0.183105
2024-12-31 11:28:39.041369,-0.006104,-0.008667,1.008545,-2.990723,0.976562,-0.244141
2024-12-31 11:28:39.049369,-0.005249,-0.009888,1.009277,-2.868652,0.854492,-0.183105
2024-12-31 11:28:39.058369,-0.004395,-0.011475,1.009033,-3.295898,0.732422,-0.122070
2024-12-31 11:28:39.066369,-0.006226,-0.009521,1.010010,-3.173828,0.793457,-0.061035
2024-12-31 11:28:39.075369,-0.006226,-0.007202,1.009033,-2.807617,0.915527,0.000000
2024-12-31 11:28:39.083369,-0.005249,-0.008423,1.008911,-2.990723,0.854492,0.122070
2024-12-31 11:28:39.092369,-0.006958,-0.008301,1.008301,-2.807617,0.915527,0.122070
2024-12-31 11:28:39.100369,-0.006592,-0.008423,1.009155,-2.929688,0.854492,0.183105
2024-12-31 11:28:39.108369,-0.007202,-0.007446,1.008545,-3.112793,0.854492,0.183105
2024-12-31 11:28:39.117369,-0.006348,-0.008789,1.008911,-3.051758,1.098633,0.549316
2024-12-31 11:28:39.125369,-0.025513,0.002563,1.010742,-2.990723,0.915527,1.220703
2024-12-31 11:28:39.134369,-0.013428,-0.004028,1.009277,-2.624512,1.159668,4.211426
2024-12-31 11:28:39.142369,-0.046509,0.022705,1.010986,-2.319336,1.464844,4.577637
2024-12-31 11:28:39.151369,0.009521,-0.017700,1.010864,-1.831055,1.342773,4.394531
2024-12-31 11:28:39.159369,-0.008911,0.003052,1.007812,-2.319336,1.098633,4.272461
2024-12-31 11:28:39.168369,0.000610,-0.002075,1.008545,-2.990723,0.854492,3.540039
2024-12-31 11:28:39.176369,0.008667,-0.024658,1.008789,-3.479004,0.854492,2.990723
2024-12-31 11:28:39.185369,-0.045898,0.026489,1.007935,-3.845215,0.915527,2.197266
2024-12-31 11:28:39.193369,-0.026367,0.008545,1.010620,-4.089355,1.342773,3.784180
2024-12-31 11:28:39.202369,0.000610,-0.021240,1.008667,-3.845215,1.037598,4.028320
2024-12-31 11:28:39.210369,0.001587,-0.019531,1.009521,-3.601074,0.488281,1.525879
2024-12-31 11:28:39.219369,-0.010742,-0.004150,1.008789,-3.784180,0.366211,-0.366211
2024-12-31 11:28:39.227369,0.004272,0.013184,1.007935,-3.173828,0.305176,0.183105
2024-12-31 11:28:39.235369,0.014771,-0.024170,1.011597,-2.136230,0.427246,-1.831055
2024-12-31 11:28:39.244369,0.015991,-0.029053,1.010498,-2.319336,0.732422,-2.868652
2024-12-31 11:28:39.252369,-0.010864,0.000977,1.009399,-3.662109,0.549316,-0.610352
2024-12-31 11:28:39.261369,0.001221,-0.012085,1.010498,-3.723145,0.427246,-0.122070
2024-12-31 11:28:39.269369,-0.009033,-0.014893,1.008911,-3.540039,0.427246,0.366211
2024-12-31 11:28:39.278369,0.010376,-0.036011,1.009277,-3.417969,1.098633,0.549316
2024-12-31 11:28:39.286369,0.002686,-0.019775,1.009033,-3.356934,1.647949,0.061035
2024-12-31 11:28:39.295369,-0.007935,-0.005005,1.008057,-2.990723,1.464844,-0.061035
2024-12-31 11:28:39.303369,-0.003174,-0.009644,1.008423,-2.685547,1.281738,-0.305176
2024-12-31 11:28:39.312369,-0.005371,-0.007446,1.009277,-2.807617,1.159668,-0.305176
2024-12-31 11:28:39.320369,-0.001831,-0.015137,1.008423,-3.417969,0.976562,-0.183105
2024-12-31 11:28:39.329369,-0.008057,-0.006836,1.009888,-3.112793,1.098633,-0.183105
2024-12-31 11:28:39.337369,0.000244,-0.013428,1.008911,-2.929688,1.098633,-0.244141
2024-12-31 11:28:39.345369,-0.006348,-0.006348,1.009033,-3.051758,1.037598,-0.915527
2024-12-31 11:28:39.354369,-0.011353,0.001343,1.008545,-3.051758,0.976562,-1.525879
2024-12-31 11:28:39.362369,-0.007324,-0.001465,1.008545,-2.685547,0.854492,-2.014160
2024-12-31 11:28:39.371369,0.000244,-0.016968,1.010132,-2.807617,0.671387,-2.075195
2024-12-31 11:28:39.379369,-0.002319,-0.013672,1.009521,-2.990723,0.671387,-1.831055
2024-12-31 11:28:39.388369,-0.012329,0.003296,1.008057,-2.746582,0.732422,-1.464844
2024-12-31 11:28:39.396369,-0.015015,0.010986,1.009277,-2.380371,0.793457,-0.854492
2024-12-31 11:28:39.405369,-0.002319,-0.008057,1.009766,-2.136230,0.732422,-0.915527
2024-12-31 11:28:39.413369,-0.004517,-0.006348,1.009277,-2.624512,0.671387,-1.403809
2024-12-31 11:28:39.422369,-0.011841,0.010010,1.007568,-2.929688,0.488281,-1.098633
2024-12-31 11:28:39.430369,-0.012329,0.003418,1.007568,-2.807617,0.183105,-1.892090
2024-12-31 11:28:39.439369,-0.008301,-0.005127,1.010132,-2.441406,0.183105,-3.417969
2024-12-31 11:28:39.447369,0.000488,-0.004272,1.009155,-2.197266,0.549316,-4.150391
2024-12-31 11:28:39.456369,0.020020,-0.051392,1.010132,-2.136230,0.671387,-4.943848
2024-12-31 11:28:39.464369,-0.007812,-0.014404,1.009644,-3.051758,0.671387,-4.028320
2024-12-31 11:28:39.472369,0.009521,0.001221,1.008789,-4.028320,0.793457,-1.159668
2024-12-31 11:28:39.481369,-0.006348,0.005249,1.009766,-4.211426,0.976562,-1.037598
2024-12-31 11:28:39.489369,-0.009644,0.002319,1.007324,-3.173828,1.098633,-3.295898
2024-12-31 11:28:39.498369,-0.023926,0.014282,1.006714,-3.173828,1.159668,-4.333496
2024-12-31 11:28:39.506369,0.010376,-0.035522,1.008789,-2.685547,1.464844,-3.540039
2024-12-31 11:28:39.515369,0.008423,-0.057495,1.008423,-2.502441,1.098633,-3.601074
2024-12-31 11:28:39.523369,-0.005737,-0.008179,1.009521,-2.563477,0.854492,-4.028320
2024-12-31 11:28:39.532369,-0.002075,-0.025146,1.009155,-2.990723,0.793457,-2.258301
2024-12-31 11:28:39.540369,0.000854,-0.039429,1.009033,-2.563477,0.854492,-1.037598
2024-12-31 11:28:39.549369,-0.003174,-0.020020,1.009521,-2.685547,0.793457,-1.159668
2024-12-31 11:28:39.557369,-0.004761,-0.011597,1.009399,-2.624512,0.854492,-0.671387
2024-12-31 11:28:39.566369,-0.004761,-0.010620,1.010620,-2.441406,0.915527,-0.671387
2024-12-31 11:28:39.574369,-0.005249,-0.012085,1.009033,-2.685547,0.915527,-0.732422
2024-12-31 11:28:39.582369,-0.005127,-0.011719,1.010010,-2.807617,0.793457,-0.671387
2024-12-31 11:28:39.591369,-0.004761,-0.012573,1.009277,-2.624512,0.854492,-0.732422
2024-12-31 11:28:39.599369,-0.005737,-0.011963,1.008667,-2.990723,0.732422,-0.732422
2024-12-31 11:28:39.608369,-0.006592,-0.010864,1.009155,-2.868652,0.732422,-0.732422
2024-12-31 11:28:39.616369,-0.006226,-0.010132,1.008423,-3.051758,0.793457,-0.671387
2024-12-31 11:28:39.625369,-0.005493,-0.010010,1.010010,-3.173828,0.854492,-0.671387
2024-12-31 11:28:39.633369,-0.006226,-0.010254,1.008667,-3.540039,0.793457,-0.793457
2024-12-31 11:28:39.642369,-0.005615,-0.009277,1.008301,-3.112793,0.793457,-0.793457
2024-12-31 11:28:39.650369,-0.006226,-0.008789,1.009033,-2.929688,0.732422,-0.854492
2024-12-31 11:28:39.659369,-0.004761,-0.009644,1.009888,-2.868652,0.793457,-0.854492
2024-12-31 11:28:39.667369,-0.005615,-0.008667,1.009033,-2.685547,0.854492,-0.793457
2024-12-31 11:28:39.676369,-0.007324,-0.010132,1.010376,-2.685547,0.793457,-0.854492
2024-12-31 11:28:39.684369,-0.005371,-0.008423,1.008057,-3.173828,0.854492,-0.793457
2024-12-31 11:28:39.693369,-0.005005,-0.007202,1.009155,-2.990723,0.915527,-0.976562
2024-12-31 11:28:39.701369,-0.006104,-0.004761,1.008423,-2.807617,0.854492,-1.159668
2024-12-31 11:28:39.709369,-0.005737,-0.000366,1.009399,-2.807617,0.976562,-1.281738
2024-12-31 11:28:39.718369,-0.005737,0.000244,1.008911,-2.807617,1.037598,-1.953125
2024-12-31 11:28:39.726369,-0.006592,-0.006714,1.008667,-2.441406,1.037598,-2.624512
2024-12-31 11:28:39.735369,-0.006958,-0.006470,1.007935,-2.929688,1.037598,-2.807617
2024-12-31 11:28:39.743369,-0.005981,-0.008545,1.008789,-2.929688,0.976562,-2.441406
2024-12-31 11:28:39.752369,-0.004395,-0.008667,1.008667,-3.051758,0.854492,-2.563477
2024-12-31 11:28:39.760369,-0.008667,0.047852,1.010620,-3.173828,0.854492,-2.868652
2024-12-31 11:28:39.769369,-0.014771,0.029541,1.009521,-3.173828,0.732422,-3.356934
2024-12-31 11:28:39.777369,-0.005493,-0.035400,1.007202,-3.417969,0.610352,-3.784180
2024-12-31 11:28:39.786369,-0.007080,0.015991,1.007812,-3.540039,0.549316,-4.089355
2024-12-31 11:28:39.794369,-0.019165,0.009766,1.007080,-4.028320,0.488281,-3.173828
2024-12-31 11:28:39.803369,0.004150,-0.004395,1.009399,-4.028320,0.854492,-0.610352
2024-12-31 11:28:39.811369,-0.002197,0.044800,1.006958,-3.540039,1.037598,0.061035
2024-12-31 11:28:39.819369,-0.004517,-0.028687,1.011475,-2.868652,1.098633,2.075195
2024-12-31 11:28:39.828369,-0.012085,-0.051514,1.006592,-2.197266,1.220703,-2.136230
2024-12-31 11:28:39.836369,-0.000732,-0.083862,1.008423,-2.075195,1.342773,-3.234863
2024-12-31 11:28:39.845369,0.000244,-0.033325,1.008667,-1.953125,1.098633,-0.549316
2024-12-31 11:28:39.853369,-0.003906,0.002808,1.009399,-2.258301,0.976562,-1.464844
2024-12-31 11:28:39.862369,-0.004883,0.008057,1.011108,-2.563477,0.976562,-1.159668
2024-12-31 11:28:39.870369,-0.008911,0.078125,1.008545,-3.295898,1.037598,-0.976562
2024-12-31 11:28:39.879369,-0.004517,-0.001709,1.008911,-4.699707,1.159668,-1.159668
2024-12-31 11:28:39.887369,-0.000488,-0.017456,1.006470,-4.577637,1.342773,-1.037598
2024-12-31 11:28:39.896369,-0.002197,-0.079712,1.008057,-4.028320,1.892090,-1.037598
2024-12-31 11:28:39.904369,-0.003540,-0.023071,1.008301,-2.075195,1.831055,-2.136230
2024-12-31 11:28:39.913369,-0.012939,0.010742,1.010620,-2.014160,1.647949,-0.732422
2024-12-31 11:28:39.921369,-0.003540,-0.039551,1.007446,-2.075195,1.647949,-1.831055
2024-12-31 11:28:39.930369,0.000610,-0.051880,1.009033,-1.953125,1.281738,-3.051758
2024-12-31 11:28:39.938369,-0.006348,0.016846,1.010132,-2.624512,0.854492,-2.441406
2024-12-31 11:28:39.946369,-0.014893,0.010010,1.008545,-3.112793,0.793457,-2.746582
2024-12-31 11:28:39.955369,-0.005737,0.009644,1.008789,-2.868652,0.854492,-2.136230
2024-12-31 11:28:39.963369,-0.005127,0.002930,1.009766,-3.417969,0.732422,-3.601074
2024-12-31 11:28:39.972369,0.000977,-0.021851,1.007812,-3.845215,0.732422,-2.746582
2024-12-31 11:28:39.980369,-0.005493,-0.017822,1.007446,-4.028320,0.854492,-2.380371
2024-12-31 11:28:39.989369,-0.007935,-0.022095,1.008179,-3.784180,0.854492,-2.807617
2024-12-31 11:28:39.997369,-0.000854,-0.034424,1.009033,-3.845215,0.732422,-0.732422
2024-12-31 11:28:40.006369,0.000000,-0.037842,1.008789,-3.051758,0.793457,-0.732422
2024-12-31 11:28:40.014369,0.001587,-0.041748,1.009033,-2.807617,0.793457,-1.403809
2024-12-31 11:28:40.023369,-0.002441,-0.021240,1.009155,-2.929688,0.671387,-1.159668
2024-12-31 11:28:40.031369,-0.000854,-0.020752,1.009033,-3.051758,0.793457,-0.793457
2024-12-31 11:28:40.040369,-0.002319,-0.017456,1.010132,-3.234863,0.915527,-0.732422
2024-12-31 11:28:40.048369,-0.002930,-0.012939,1.008911,-3.417969,0.976562,-0.488281
2024-12-31 11:28:40.057369,-0.004150,-0.010986,1.009155,-3.479004,0.854492,-0.549316
2024-12-31 11:28:40.065369,-0.004883,-0.007080,1.009888,-3.295898,0.976562,-0.549316
2024-12-31 11:28:40.073369,-0.007568,-0.005371,1.009155,-3.295898,0.976562,-0.488281
2024-12-31 11:28:40.082369,-0.011841,-0.000977,1.009521,-3.173828,0.976562,-0.305176
2024-12-31 11:28:40.090369,-0.007446,-0.008423,1.009888,-3.051758,1.098633,-0.061035
2024-12-31 11:28:40.099369,0.001709,-0.022217,1.008301,-3.112793,1.159668,-0.122070
2024-12-31 11:28:40.107369,-0.001831,-0.015503,1.008423,-3.295898,1.098633,-0.549316
2024-12-31 11:28:40.116369,-0.004639,-0.010864,1.008423,-3.295898,1.159668,-0.671387
2024-12-31 11:28:40.124369,-0.005737,-0.010620,1.008301,-3.295898,1.037598,-0.671387
2024-12-31 11:28:40.133369,0.000488,-0.014282,1.007935,-2.990723,0.915527,-0.610352
2024-12-31 11:28:40.141369,-0.000244,-0.012695,1.007690,-3.234863,0.793457,-0.427246
2024-12-31 11:28:40.150369,-0.000244,-0.011353,1.008301,-3.662109,0.854492,-0.427246
2024-12-31 11:28:40.158369,-0.002075,-0.011108,1.009155,-3.601074,0.732422,-0.427246
2024-12-31 11:28:40.167369,-0.003906,-0.011597,1.009033,-3.295898,0.976562,-0.366211
2024-12-31 11:28:40.175369,-0.002563,-0.012085,1.008057,-3.356934,1.037598,-0.366211
2024-12-31 11:28:40.183369,-0.006714,-0.015991,1.009399,-3.417969,0.793457,-0.244141
2024-12-31 11:28:40.192369,-0.008789,-0.016724,1.008545,-3.479004,0.915527,0.244141
2024-12-31 11:28:40.200369,-0.009399,-0.015747,1.008545,-3.967285,0.793457,1.403809
2024-12-31 11:28:40.209369,-0.008057,-0.014648,1.009033,-4.089355,0.732422,1.281738
2024-12-31 11:28:40.217369,-0.019043,-0.027100,1.009277,-3.662109,0.915527,0.732422
2024-12-31 11:28:40.226369,-0.011597,-0.025879,1.009033,-3.662109,0.976562,0.793457
2024-12-31 11:28:40.234369,-0.001831,-0.017944,1.009033,-3.601074,1.098633,1.098633
2024-12-31 11:28:40.243369,-0.004883,-0.024048,1.009399,-3.784180,1.037598,1.525879
2024-12-31 11:28:40.251369,0.000000,-0.002930,1.009033,-4.028320,0.915527,2.075195
2024-12-31 11:28:40.260369,0.007324,0.008911,1.008545,-4.333496,1.098633,1.037598
2024-12-31 11:28:40.268369,-0.001099,-0.008667,1.008911,-4.089355,1.403809,1.342773
2024-12-31 11:28:40.277369,0.020142,-0.000977,1.008911,-3.723145,0.854492,1.953125
2024-12-31 11:28:40.285369,0.002686,0.003540,1.010376,-4.516602,0.671387,2.258301
2024-12-31 11:28:40.293369,-0.027710,-0.047974,1.006348,-4.516602,0.915527,-0.061035
2024-12-31 11:28:40.302369,0.010254,0.009521,1.009521,-3.234863,0.183105,-0.061035
2024-12-31 11:28:40.310369,0.000366,0.004028,1.009033,-3.601074,0.427246,1.586914
2024-12-31 11:28:40.319369,-0.000366,-0.002686,1.006958,-3.173828,0.610352,0.976562
2024-12-31 11:28:40.327369,-0.006226,-0.025391,1.008789,-2.197266,0.244141,0.671387
2024-12-31 11:28:40.336369,-0.011963,-0.051880,1.003906,-1.647949,-0.305176,0.427246
2024-12-31 11:28:40.344369,0.002686,-0.000977,1.009766,-1.708984,-0.854492,-0.366211
2024-12-31 11:28:40.353369,-0.006592,-0.002075,1.011841,-3.112793,-0.244141,-1.159668
2024-12-31 11:28:40.361369,-0.001465,0.011597,1.011597,-3.906250,0.549316,-2.197266
2024-12-31 11:28:40.370369,-0.012695,-0.025635,1.010376,-3.540039,0.488281,-0.976562
2024-12-31 11:28:40.378369,0.009766,0.006470,1.010620,-3.051758,0.671387,-0.244141
2024-12-31 11:28:40.387369,0.004639,0.001099,1.008911,-3.295898,1.403809,-0.732422
2024-12-31 11:28:40.395369,0.001343,-0.009399,1.009155,-4.089355,1.403809,-0.366211
2024-12-31 11:28:40.404369,0.001709,0.019531,1.010864,-3.906250,1.098633,-0.488281
2024-12-31 11:28:40.412369,-0.004272,0.000488,1.010132,-4.089355,0.854492,1.098633
2024-12-31 11:28:40.420369,-0.010254,-0.029663,1.008423,-3.173828,0.854492,0.915527
2024-12-31 11:28:40.429369,-0.011108,-0.039062,1.008179,-2.563477,0.549316,0.610352
2024-12-31 11:28:40.437369,-0.003296,-0.033447,1.005981,-1.770020,0.244141,0.854492
2024-12-31 11:28:40.446369,0.003784,0.034668,1.010986,-1.464844,0.244141,0.061035
2024-12-31 11:28:40.454369,-0.002075,0.015991,1.011475,-2.258301,0.488281,0.793457
2024-12-31 11:28:40.463369,-0.008057,-0.010864,1.008179,-2.929688,0.732422,0.854492
2024-12-31 11:28:40.471369,-0.002686,-0.001709,1.010498,-2.319336,0.549316,-0.122070
2024-12-31 11:28:40.480369,-0.006592,-0.001587,1.007812,-2.319336,0.610352,-0.732422
2024-12-31 11:28:40.488369,-0.003296,-0.000122,1.008545,-2.502441,0.732422,-1.708984
2024-12-31 11:28:40.497369,-0.006226,-0.010132,1.009766,-2.807617,0.854492,-1.403809
2024-12-31 11:28:40.505369,-0.002930,-0.010376,1.008423,-3.051758,0.854492,-0.976562
2024-12-31 11:28:40.514369,-0.003906,-0.018677,1.007812,-3.417969,0.976562,-0.549316
2024-12-31 11:28:40.522369,-0.001831,-0.014648,1.008911,-3.417969,0.854492,-0.427246
2024-12-31 11:28:40.531369,-0.000977,-0.014526,1.010254,-3.173828,0.854492,-0.549316
2024-12-31 11:28:40.539369,-0.000854,-0.028931,1.007324,-3.417969,0.793457,-0.122070
2024-12-31 11:28:40.547369,0.000610,-0.029053,1.008423,-3.601074,0.610352,0.549316
2024-12-31 11:28:40.556369,-0.003540,-0.000854,1.009888,-3.662109,0.854492,-0.305176
2024-12-31 11:28:40.564369,-0.005981,-0.006348,1.008789,-3.234863,0.915527,-1.586914
2024-12-31 11:28:40.573369,-0.009033,0.011353,1.009766,-3.662109,0.732422,-1.708984
2024-12-31 11:28:40.581369,0.000244,-0.024170,1.008911,-3.601074,0.793457,-2.319336
2024-12-31 11:28:40.590369,-0.003052,-0.006104,1.009399,-3.845215,0.854492,-2.380371
2024-12-31 11:28:40.598369,-0.006348,-0.005371,1.009033,-3.540039,0.732422,-1.342773
2024-12-31 11:28:40.607369,-0.001099,-0.021118,1.008057,-3.051758,0.488281,-0.305176
2024-12-31 11:28:40.615369,0.000366,-0.026611,1.009399,-2.990723,0.305176,-0.183105
2024-12-31 11:28:40.624369,0.000122,-0.012817,1.007812,-2.807617,0.122070,0.000000
2024-12-31 11:28:40.632369,-0.002930,-0.006226,1.008545,-2.197266,0.183105,0.305176
2024-12-31 11:28:40.641369,0.000488,-0.023071,1.008789,-1.892090,0.122070,0.244141
2024-12-31 11:28:40.649369,-0.006470,-0.006470,1.009033,-1.831055,-0.061035,0.366211
2024-12-31 11:28:40.657369,0.000122,-0.012451,1.009644,-2.014160,0.244141,-1.342773
2024-12-31 11:28:40.666369,-0.003540,-0.029785,1.007568,-2.563477,0.793457,-2.075195
2024-12-31 11:28:40.674369,-0.011841,-0.009644,1.010742,-3.845215,1.281738,-1.647949
2024-12-31 11:28:40.683369,0.002686,-0.049561,1.005737,-4.150391,1.281738,-0.854492
2024-12-31 11:28:40.691369,0.012451,-0.038208,1.004639,-4.150391,1.220703,0.305176
2024-12-31 11:28:40.700369,-0.035400,0.053955,1.011475,-4.699707,0.793457,0.610352
2024-12-31 11:28:40.708369,-0.022949,0.034424,1.011841,-3.356934,0.610352,1.037598
2024-12-31 11:28:40.717369,-0.007568,0.004395,1.008423,-3.295898,0.427246,0.915527
2024-12-31 11:28:40.725369,-0.000977,-0.022827,1.009277,-3.540039,0.488281,0.000000
2024-12-31 11:28:40.734369,-0.004028,-0.016113,1.009277,-2.868652,0.366211,-0.183105
2024-12-31 11:28:40.742369,-0.011841,0.012085,1.008179,-3.112793,0.244141,-0.976562
2024-12-31 11:28:40.751369,-0.001587,-0.015625,1.009888,-3.295898,0.488281,-1.953125
2024-12-31 11:28:40.759369,-0.013184,0.010132,1.009155,-2.929688,0.671387,-1.281738
2024-12-31 11:28:40.768369,0.012695,-0.037720,1.009521,-2.929688,0.671387,-1.586914
2024-12-31 11:28:40.776369,-0.022827,0.015869,1.008179,-2.929688,0.549316,-2.502441
2024-12-31 11:28:40.784369,-0.001587,-0.004639,1.009521,-2.563477,0.732422,-3.417969
2024-12-31 11:28:40.793369,-0.009644,0.000000,1.008789,-2.502441,0.915527,-3.295898
2024-12-31 11:28:40.801369,-0.013550,0.002808,1.008423,-2.624512,1.159668,-4.211426
2024-12-31 11:28:40.810369,-0.007324,-0.001587,1.009521,-2.563477,1.037598,-2.624512
2024-12-31 11:28:40.818369,-0.011841,0.002075,1.010254,-2.685547,0.854492,-1.831055
2024-12-31 11:28:40.827369,0.000488,-0.014160,1.010376,-2.868652,0.671387,-1.281738
2024-12-31 11:28:40.835369,0.012573,-0.025513,1.010010,-2.624512,0.671387,-1.586914
2024-12-31 11:28:40.844369,0.011963,-0.028931,1.008179,-2.624512,0.793457,-2.868652
2024-12-31 11:28:40.852369,0.004028,-0.032959,1.007568,-3.234863,0.732422,-3.967285
2024-12-31 11:28:40.861369,0.000610,-0.009766,1.008667,-3.540039,0.854492,-2.014160
2024-12-31 11:28:40.869369,-0.030029,-0.013672,1.007690,-4.272461,0.976562,0.305176
2024-12-31 11:28:40.878369,0.032593,-0.046997,1.011230,-3.662109,0.671387,0.000000
2024-12-31 11:28:40.886369,-0.084717,0.026855,1.006592,-2.563477,0.366211,-1.770020
2024-12-31 11:28:40.895369,0.013672,-0.000977,1.010498,-2.380371,0.305176,-2.990723
2024-12-31 11:28:40.903369,-0.014282,-0.005127,1.008179,-2.136230,0.549316,-2.441406
2024-12-31 11:28:40.911369,0.004150,-0.013794,1.006958,-2.685547,0.366211,-0.549316
2024-12-31 11:28:40.920369,-0.010864,-0.024170,1.013306,-3.479004,0.549316,-0.244141
2024-12-31 11:28:40.928369,-0.032959,-0.029907,1.008179,-5.065918,0.610352,-0.915527
2024-12-31 11:28:40.937369,-0.049438,0.027832,1.009277,-5.065918,0.549316,-1.525879
2024-12-31 11:28:40.945369,-0.009033,0.001343,1.010132,-4.028320,0.366211,-2.075195
2024-12-31 11:28:40.954369,-0.008423,-0.003418,1.010254,-3.479004,0.366211,-1.342773
2024-12-31 11:28:40.962369,-0.009399,-0.005005,1.008667,-3.845215,0.183105,-1.525879
2024-12-31 11:28:40.971369,-0.024658,0.007080,1.008301,-3.662109,0.000000,-1.220703
2024-12-31 11:28:40.979369,-0.016113,0.000122,1.008911,-4.028320,-0.122070,-2.136230
2024-12-31 11:28:40.988369,-0.015991,0.000366,1.009155,-3.906250,-0.061035,-2.624512
2024-12-31 11:28:40.996369,-0.014771,-0.001099,1.009888,-3.662109,0.122070,-2.685547
2024-12-31 11:28:41.005369,-0.008301,0.010132,1.013306,-3.967285,0.183105,-2.380371
2024-12-31 11:28:41.013369,-0.010254,-0.024292,1.007812,-1.586914,-0.549316,-1.220703
2024-12-31 11:28:41.021369,-0.018555,-0.007812,1.001221,-0.610352,-2.258301,-0.366211
2024-12-31 11:28:41.030369,-0.015381,-0.011230,1.005127,-1.342773,-1.586914,-0.671387
2024-12-31 11:28:41.038369,-0.013306,-0.011475,1.007812,-2.197266,-0.366211,-0.671387
2024-12-31 11:28:41.047369,-0.010986,-0.013184,1.010986,-2.441406,0.244141,-0.610352
2024-12-31 11:28:41.055369,-0.011230,-0.004150,1.009399,-3.234863,0.244141,-1.037598
2024-12-31 11:28:41.064369,-0.011963,-0.002686,1.005371,-3.234863,0.305176,-1.159668
2024-12-31 11:28:41.072369,-0.010864,-0.012695,1.009399,-2.929688,0.427246,-1.098633
2024-12-31 11:28:41.081369,0.000366,-0.080933,1.037354,-2.990723,0.427246,-1.281738
2024-12-31 11:28:41.089369,-0.018433,-0.026489,1.012695,-4.638672,-2.563477,-9.826660
2024-12-31 11:28:41.098369,-0.029907,-0.071289,1.019165,-2.685547,-7.202148,-24.414062
2024-12-31 11:28:41.106369,0.002686,0.056152,1.012329,-1.770020,-10.253906,-29.724121
2024-12-31 11:28:41.115369,-0.007690,0.062012,1.002808,-1.647949,-11.169434,-21.911621
2024-12-31 11:28:41.123369,-0.021362,0.004395,1.003296,-1.708984,-10.253906,-6.530762
2024-12-31 11:28:41.132369,-0.029297,-0.016846,1.000366,-1.647949,-8.666992,-0.549316
2024-12-31 11:28:41.140369,-0.027832,-0.002686,1.003174,-2.380371,-5.859375,-1.770020
2024-12-31 11:28:41.148369,-0.029419,-0.009766,1.001953,-2.319336,-3.967285,-0.976562
2024-12-31 11:28:41.157369,-0.023071,-0.008057,1.009399,-2.441406,-2.136230,-0.854492
2024-12-31 11:28:41.165369,-0.022339,-0.006836,1.008545,-2.502441,-1.831055,-0.732422
2024-12-31 11:28:41.174369,-0.027100,-0.005737,1.004150,-2.746582,-2.197266,-0.732422
2024-12-31 11:28:41.182369,-0.027222,-0.008301,1.008301,-2.685547,-1.892090,-0.610352
2024-12-31 11:28:41.191369,-0.026733,-0.010986,1.004517,-3.112793,-1.525879,-0.793457
2024-12-31 11:28:41.199369,-0.024414,-0.010864,1.011108,-3.112793,-0.671387,-0.732422
2024-12-31 11:28:41.208369,-0.026855,-0.003418,1.007324,-3.112793,-0.366211,-0.793457
2024-12-31 11:28:41.216369,-0.044189,-0.033691,0.983398,-2.868652,0.000000,-0.183105
2024-12-31 11:28:41.225369,-0.041016,-0.015991,0.986450,-2.746582,3.479004,-1.403809
2024-12-31 11:28:41.233369,-0.030396,-0.007935,1.000000,-2.929688,9.399414,-2.685547
2024-12-31 11:28:41.242369,-0.026367,-0.009033,1.011108,-3.295898,12.268066,-2.075195
2024-12-31 11:28:41.250369,-0.009766,-0.006714,1.030518,-3.112793,13.183594,-2.990723
2024-12-31 11:28:41.258369,-0.015259,-0.025757,1.028198,-2.807617,9.277344,-3.479004
2024-12-31 11:28:41.267369,-0.017090,-0.019409,1.013428,-3.051758,4.699707,-6.896973
2024-12-31 11:28:41.275369,-0.011841,-0.015381,1.017578,-3.173828,2.380371,-9.765625
2024-12-31 11:28:41.284369,-0.020386,-0.015137,1.008789,-2.868652,1.037598,-11.474609
2024-12-31 11:28:41.292369,-0.001953,0.020020,1.012573,-2.990723,0.976562,-13.916016
2024-12-31 11:28:41.301369,-0.011230,0.003662,1.011841,-3.417969,0.427246,-8.972168
2024-12-31 11:28:41.309369,-0.013916,-0.014526,1.014771,-3.112793,-0.061035,-4.089355
2024-12-31 11:28:41.318369,-0.016846,-0.022705,1.018433,-2.929688,-1.281738,-4.394531
2024-12-31 11:28:41.326369,-0.020264,-0.021851,1.023804,-3.112793,-3.295898,-7.385254
2024-12-31 11:28:41.335369,-0.001343,-0.004639,1.021118,-2.868652,-6.225586,-9.948730
2024-12-31 11:28:41.343369,-0.013428,-0.001465,1.022095,-3.356934,-9.216309,-9.826660
2024-12-31 11:28:41.352369,-0.017822,0.008301,1.022827,-4.028320,-12.207031,-7.995605
2024-12-31 11:28:41.360369,-0.024048,-0.011719,1.015015,-3.479004,-15.441895,-4.333496
2024-12-31 11:28:41.369369,-0.031128,-0.011597,1.008301,-3.295898,-16.906738,-4.272461
2024-12-31 11:28:41.377369,-0.032959,-0.005127,1.010254,-3.356934,-17.333984,-4.943848
2024-12-31 11:28:41.385369,-0.033447,-0.005737,1.012207,-3.356934,-17.456055,-4.638672
2024-12-31 11:28:41.394369,-0.036987,-0.005737,1.008911,-3.601074,-18.005371,-4.028320
2024-12-31 11:28:41.402369,-0.043823,-0.006592,1.007812,-3.723145,-18.615723,-3.601074
2024-12-31 11:28:41.411369,-0.049072,-0.009521,1.001465,-3.112793,-18.615723,-3.173828
2024-12-31 11:28:41.419369,-0.054932,-0.009155,1.001221,-3.234863,-17.395020,-3.417969
2024-12-31 11:28:41.428369,-0.058350,-0.008057,1.001343,-3.479004,-15.869141,-3.784180
2024-12-31 11:28:41.436369,-0.059814,-0.008545,1.000977,-3.295898,-14.343262,-4.028320
2024-12-31 11:28:41.445369,-0.062744,-0.003906,1.000610,-3.173828,-12.817383,-3.967285
2024-12-31 11:28:41.453369,-0.079224,0.000000,0.979248,-3.540039,-10.375977,-3.234863
2024-12-31 11:28:41.462369,-0.059570,-0.016113,1.005981,-2.990723,-4.699707,-1.647949
2024-12-31 11:28:41.470369,-0.059937,-0.015015,1.010498,-3.112793,-3.173828,-2.075195
2024-12-31 11:28:41.479369,-0.062012,-0.006592,1.010254,-3.540039,-3.662109,-3.356934
2024-12-31 11:28:41.487369,-0.063843,-0.004517,1.008911,-3.845215,-4.150391,-3.417969
2024-12-31 11:28:41.496369,-0.065308,-0.008667,1.005615,-3.784180,-4.394531,-2.929688
2024-12-31 11:28:41.504369,-0.069458,-0.002930,1.002197,-4.211426,-4.272461,-2.929688
2024-12-31 11:28:41.512369,-0.070801,-0.002319,1.003418,-3.662109,-3.295898,-2.441406
2024-12-31 11:28:41.521369,-0.070923,-0.005615,1.002808,-3.234863,-2.197266,-1.647949
2024-12-31 11:28:41.529369,-0.073120,-0.008301,1.000488,-3.540039,-1.159668,-1.220703
2024-12-31 11:28:41.538369,-0.070190,-0.008423,1.002563,-3.479004,0.122070,-1.220703
2024-12-31 11:28:41.546369,-0.070679,-0.004639,1.006104,-3.479004,1.159668,-1.525879
2024-12-31 11:28:41.555369,-0.069458,-0.003052,1.004883,-3.784180,1.525879,-1.281738
2024-12-31 11:28:41.563369,-0.069702,-0.003784,1.005737,-3.662109,2.075195,-0.671387
2024-12-31 11:28:41.572369,-0.065430,-0.001343,1.005371,-3.723145,2.502441,-0.305176
2024-12-31 11:28:41.580369,-0.065552,-0.004028,1.000854,-3.967285,3.051758,0.061035
2024-12-31 11:28:41.589369,-0.059204,-0.005981,1.000610,-4.699707,4.333496,0.732422
2024-12-31 11:28:41.597369,-0.039673,-0.005249,1.000488,-6.286621,6.408691,1.647949
2024-12-31 11:28:41.606369,-0.061768,0.004150,1.000244,-10.192871,8.666992,2.990723
2024-12-31 11:28:41.614369,-0.074219,0.005859,0.998169,-11.840820,10.559082,5.187988
2024-12-31 11:28:41.622369,-0.086548,-0.002075,1.000610,-8.972168,12.512207,6.774902
2024-12-31 11:28:41.631369,-0.071289,-0.010254,1.000366,-6.347656,14.038086,6.347656
2024-12-31 11:28:41.639369,-0.062622,-0.003052,1.000488,-7.812500,16.784668,5.798340
2024-12-31 11:28:41.648369,-0.058472,-0.002563,1.001099,-9.399414,19.348145,5.798340
2024-12-31 11:28:41.656369,-0.054565,-0.006470,1.004639,-11.291504,21.179199,5.798340
2024-12-31 11:28:41.665369,-0.046875,-0.003052,1.006104,-14.343262,23.071289,5.798340
2024-12-31 11:28:41.673369,-0.044922,0.003906,1.005615,-18.188477,24.353027,6.042480
2024-12-31 11:28:41.682369,-0.039795,0.004150,1.010010,-20.324707,25.451660,6.347656
2024-12-31 11:28:41.690369,-0.029785,0.008911,1.015137,-21.972656,25.939941,6.652832
2024-12-31 11:28:41.699369,-0.022583,0.018188,1.013916,-23.132324,25.268555,6.408691
2024-12-31 11:28:41.707369,-0.015137,0.027954,1.012939,-24.536133,24.658203,7.080078
2024-12-31 11:28:41.716369,-0.017578,0.038330,1.022095,-24.230957,24.047852,7.324219
2024-12-31 11:28:41.724369,-0.008545,0.023315,1.027344,-16.601562,19.470215,5.676270
2024-12-31 11:28:41.733369,-0.009521,0.022339,1.019531,-10.498047,12.756348,3.662109
2024-12-31 11:28:41.741369,-0.012573,0.024536,1.012085,-10.986328,10.009766,3.845215
2024-12-31 11:28:41.749369,-0.015869,0.028687,1.009644,-11.108398,9.033203,3.234863
2024-12-31 11:28:41.758369,-0.012573,0.031860,1.006714,-7.446289,7.385254,0.976562
2024-12-31 11:28:41.766369,-0.010254,0.027100,1.011963,-4.455566,5.798340,-0.244141
2024-12-31 11:28:41.775369,-0.008911,0.028076,1.012451,-3.479004,5.004883,-0.305176
2024-12-31 11:28:41.783369,-0.008789,0.027344,1.010498,-3.784180,4.333496,-0.305176
2024-12-31 11:28:41.792369,-0.009155,0.028687,1.008911,-4.455566,3.662109,-0.305176
2024-12-31 11:28:41.800369,-0.007690,0.030762,1.009399,-4.272461,3.417969,-0.305176
2024-12-31 11:28:41.809369,-0.006836,0.032959,1.007202,-4.028320,2.868652,-0.244141
2024-12-31 11:28:41.817369,-0.006226,0.031738,1.007568,-3.662109,2.685547,-0.305176
2024-12-31 11:28:41.826369,-0.008179,0.025391,1.009033,-3.295898,2.746582,-0.305176
2024-12-31 11:28:41.834369,-0.009155,0.033203,1.006348,-4.150391,2.685547,-0.366211
2024-12-31 11:28:41.843369,-0.009888,0.034668,1.005005,-3.417969,2.746582,-0.671387
2024-12-31 11:28:41.851369,-0.008789,0.034790,1.004517,-1.037598,2.624512,-0.976562
2024-12-31 11:28:41.860369,-0.007935,0.031006,1.005981,1.159668,2.563477,-1.220703
2024-12-31 11:28:41.868369,-0.007080,0.029419,1.007935,2.502441,2.746582,-1.159668
2024-12-31 11:28:41.876369,-0.006470,0.024780,1.009155,3.295898,2.990723,-0.976562
2024-12-31 11:28:41.885369,-0.005737,0.019775,1.011108,3.234863,3.173828,-0.976562
2024-12-31 11:28:41.893369,-0.006226,0.019287,1.011230,1.525879,3.295898,-1.098633
2024-12-31 11:28:41.902369,-0.006470,0.023682,1.009521,-0.366211,3.417969,-1.098633
2024-12-31 11:28:41.910369,-0.003418,0.011841,1.015503,-0.793457,3.723145,-1.220703
2024-12-31 11:28:41.919369,-0.004150,0.012451,1.013672,-3.967285,4.150391,-1.037598
2024-12-31 11:28:41.927369,-0.006836,0.017700,1.013672,-7.080078,4.516602,-0.549316
2024-12-31 11:28:41.936369,-0.014160,0.023560,1.011353,-9.643555,5.249023,-0.610352
2024-12-31 11:28:41.944369,-0.018677,0.026245,1.006836,-11.047363,5.554199,-0.976562
2024-12-31 11:28:41.953369,-0.008667,0.035767,1.004517,-9.765625,5.676270,-0.854492
2024-12-31 11:28:41.961369,0.005127,0.043457,1.001587,-6.774902,5.737305,-1.098633
2024-12-31 11:28:41.970369,0.003418,0.024292,1.009644,-3.356934,5.065918,-1.403809
2024-12-31 11:28:41.978369,-0.004150,0.016113,1.008911,-3.112793,5.126953,-1.586914
2024-12-31 11:28:41.986369,-0.000610,0.023071,1.013550,-3.356934,5.126953,-0.793457
2024-12-31 11:28:41.995369,-0.008301,0.037964,1.008545,-3.601074,6.164551,-0.427246
2024-12-31 11:28:42.003369,-0.000732,0.042725,1.000854,-1.342773,7.324219,-1.525879
2024-12-31 11:28:42.012369,-0.006836,0.020630,0.998291,1.586914,7.019043,-3.479004
2024-12-31 11:28:42.020369,-0.007812,0.006470,0.997314,2.929688,4.821777,-3.662109
2024-12-31 11:28:42.029369,0.023560,0.026001,1.013428,2.746582,2.563477,-2.441406
2024-12-31 11:28:42.037369,0.032715,0.031250,1.024414,0.976562,2.624512,-2.502441
2024-12-31 11:28:42.046369,0.017944,0.023438,1.017578,-2.319336,4.516602,-3.417969
2024-12-31 11:28:42.054369,0.010864,0.035034,1.006836,-4.211426,6.652832,-4.577637
2024-12-31 11:28:42.063369,0.018555,0.020508,1.003906,-2.929688,7.263184,-4.760742
2024-12-31 11:28:42.071369,0.017090,0.007324,1.003052,-2.685547,6.958008,-3.784180
2024-12-31 11:28:42.080369,0.009888,0.010132,1.014282,-3.784180,5.737305,-1.220703
2024-12-31 11:28:42.088369,0.006958,0.022461,1.022095,-5.615234,6.225586,0.549316
2024-12-31 11:28:42.097369,0.008179,0.028442,1.016479,-7.080078,9.033203,0.732422
2024-12-31 11:28:42.105369,0.015747,0.026855,1.007202,-7.141113,11.291504,0.366211
2024-12-31 11:28:42.113369,0.020264,0.023438,1.001343,-6.774902,12.145996,0.427246
2024-12-31 11:28:42.122369,0.021484,0.024414,1.004517,-6.835938,11.291504,0.854492
2024-12-31 11:28:42.130369,0.020020,0.027832,1.009766,-7.141113,10.314941,1.098633
2024-12-31 11:28:42.139369,0.024658,0.029541,1.012207,-6.469727,10.925293,1.464844
2024-12-31 11:28:42.147369,0.019653,0.027344,1.008789,-5.920410,12.573242,1.770020
2024-12-31 11:28:42.156369,0.023315,0.029541,1.007324,-5.310059,13.671875,1.953125
2024-12-31 11:28:42.164369,0.022461,0.038940,1.004272,-4.943848,13.854980,2.075195
2024-12-31 11:28:42.173369,0.028687,0.037842,1.004883,-3.295898,14.038086,1.159668
2024-12-31 11:28:42.181369,0.034668,0.026367,1.005737,-2.075195,13.854980,0.366211
2024-12-31 11:28:42.190369,0.036011,0.023804,1.006226,-2.624512,13.671875,0.183105
2024-12-31 11:28:42.198369,0.035645,0.029175,1.007935,-3.845215,13.427734,0.610352
2024-12-31 11:28:42.207369,0.033447,0.032349,1.012085,-3.417969,13.793945,1.159668
2024-12-31 11:28:42.215369,0.036621,0.028809,1.015747,-2.136230,15.625000,1.586914
2024-12-31 11:28:42.223369,0.038574,0.023926,1.018677,-1.342773,18.249512,2.258301
2024-12-31 11:28:42.232369,0.045654,0.024902,1.015381,-1.525879,21.362305,3.173828
2024-12-31 11:28:42.240369,0.052368,0.024536,1.011353,-1.098633,24.230957,4.089355
2024-12-31 11:28:42.249369,0.052124,0.027100,1.004272,-1.525879,25.817871,4.455566
2024-12-31 11:28:42.257369,0.054077,0.034058,1.003784,-1.342773,26.062012,4.943848
2024-12-31 11:28:42.266369,0.062012,0.037842,1.003418,-0.244141,26.062012,4.455566
2024-12-31 11:28:42.274369,0.069458,0.030029,1.002930,1.098633,26.245117,3.601074
2024-12-31 11:28:42.283369,0.074219,0.028320,1.001831,1.708984,26.428223,3.173828
2024-12-31 11:28:42.291369,0.078735,0.021606,1.000977,2.685547,26.245117,3.295898
2024-12-31 11:28:42.300369,0.081055,0.020508,1.002319,2.441406,25.756836,3.295898
2024-12-31 11:28:42.308369,0.088013,0.028931,1.000244,1.892090,25.695801,3.784180
2024-12-31 11:28:42.317369,0.106323,0.028564,1.000977,2.380371,25.451660,2.929688
2024-12-31 11:28:42.325369,0.084595,0.025513,1.000977,2.685547,25.451660,1.403809
2024-12-31 11:28:42.334369,0.102417,0.020630,0.994385,2.502441,24.841309,1.708984
2024-12-31 11:28:42.342369,0.105835,0.026733,0.989868,2.868652,23.010254,1.586914
2024-12-31 11:28:42.350369,0.111206,0.016846,0.992798,3.479004,19.775391,0.671387
2024-12-31 11:28:42.359369,0.110229,0.015991,0.995483,2.807617,16.418457,0.305176
2024-12-31 11:28:42.367369,0.110352,0.014038,1.000244,2.014160,13.854980,0.000000
2024-12-31 11:28:42.376369,0.112549,0.015259,1.000610,1.831055,12.634277,-0.061035
2024-12-31 11:28:42.384369,0.113892,0.017944,0.998413,1.647949,12.207031,-0.061035
2024-12-31 11:28:42.393369,0.118652,0.016968,0.996094,2.014160,11.291504,-0.244141
2024-12-31 11:28:42.401369,0.123901,0.007690,0.996460,2.014160,9.521484,-0.732422
2024-12-31 11:28:42.410369,0.124023,0.013184,0.992676,0.732422,7.446289,-0.915527
2024-12-31 11:28:42.418369,0.123901,0.017212,0.990601,0.427246,5.249023,-1.037598
2024-12-31 11:28:42.427369,0.122437,0.012817,0.994385,1.220703,2.380371,-1.525879
2024-12-31 11:28:42.435369,0.119263,0.010132,0.999634,1.770020,0.549316,-2.014160
2024-12-31 11:28:42.444369,0.116699,0.008057,1.000488,1.586914,-0.183105,-2.319336
2024-12-31 11:28:42.452369,0.116333,0.007446,1.002197,1.953125,0.061035,-2.197266
2024-12-31 11:28:42.461369,0.116577,0.008789,1.000610,2.075195,0.610352,-2.075195
2024-12-31 11:28:42.469369,0.117798,0.005005,1.000488,2.258301,1.220703,-2.014160
2024-12-31 11:28:42.477369,0.118530,0.009033,0.999512,2.441406,1.098633,-2.014160
2024-12-31 11:28:42.486369,0.118286,0.003540,1.000610,2.807617,0.488281,-2.502441
2024-12-31 11:28:42.494369,0.120605,-0.003662,1.000610,2.929688,0.366211,-2.746582
2024-12-31 11:28:42.503369,0.120239,-0.002930,1.001465,1.037598,-0.061035,-2.685547
2024-12-31 11:28:42.511369,0.114868,0.001099,1.003174,-0.976562,-0.305176,-2.258301
2024-12-31 11:28:42.520369,0.116333,0.002563,1.001587,-0.976562,0.366211,-2.075195
2024-12-31 11:28:42.528369,0.118408,0.000854,1.000610,-0.732422,0.915527,-2.197266
2024-12-31 11:28:42.537369,0.119019,0.000366,1.000244,-0.610352,0.671387,-2.380371
2024-12-31 11:28:42.545369,0.119141,0.000610,1.000244,-0.793457,0.366211,-2.319336
2024-12-31 11:28:42.554369,0.119751,-0.001831,1.000488,-0.244141,0.122070,-2.563477
2024-12-31 11:28:42.562369,0.119873,-0.002686,1.000366,-0.244141,-0.366211,-2.441406
2024-12-31 11:28:42.571369,0.120239,-0.000488,0.998169,-0.244141,-0.671387,-1.953125
2024-12-31 11:28:42.579369,0.119873,0.003784,0.994141,-0.305176,-1.464844,-2.197266
2024-12-31 11:28:42.588369,0.120850,-0.003784,0.993652,-0.671387,-3.356934,-3.356934
2024-12-31 11:28:42.596369,0.119873,-0.005493,0.993408,-1.220703,-5.615234,-3.845215
2024-12-31 11:28:42.604369,0.114502,-0.005249,0.999878,-1.525879,-7.934570,-3.662109
2024-12-31 11:28:42.613369,0.109009,-0.005981,1.006836,-2.197266,-9.460449,-3.540039
2024-12-31 11:28:42.621369,0.108032,-0.004028,1.004639,-2.624512,-8.483887,-2.929688
2024-12-31 11:28:42.630369,0.111206,-0.002197,1.000000,-2.563477,-7.202148,-2.624512
2024-12-31 11:28:42.638369,0.110840,-0.004150,0.993408,-2.685547,-7.812500,-2.868652
2024-12-31 11:28:42.647369,0.106567,-0.002075,0.997437,-3.601074,-10.009766,-3.234863
2024-12-31 11:28:42.655369,0.101440,-0.000977,1.000732,-2.929688,-11.718750,-3.601074
2024-12-31 11:28:42.664369,0.097534,-0.003296,1.004028,-2.319336,-12.145996,-3.784180
2024-12-31 11:28:42.672369,0.093262,-0.002197,1.006348,-2.197266,-11.596680,-3.906250
2024-12-31 11:28:42.681369,0.093628,-0.005127,1.006348,-2.136230,-10.559082,-4.028320
2024-12-31 11:28:42.689369,0.094971,-0.005615,1.002930,-2.258301,-9.460449,-3.906250
2024-12-31 11:28:42.698369,0.093628,-0.001099,1.000854,-2.624512,-9.277344,-3.784180
2024-12-31 11:28:42.706369,0.090454,-0.002319,1.001221,-2.319336,-9.948730,-4.272461
2024-12-31 11:28:42.714369,0.090210,-0.005493,1.002075,-2.502441,-10.559082,-5.004883
2024-12-31 11:28:42.723369,0.087891,-0.006226,1.000854,-2.563477,-11.169434,-4.943848
2024-12-31 11:28:42.731369,0.086426,-0.005493,1.001709,-2.563477,-11.779785,-4.882812
2024-12-31 11:28:42.740369,0.082031,-0.005249,1.003662,-2.502441,-12.329102,-4.943848
2024-12-31 11:28:42.748369,0.081177,-0.007446,1.000732,-3.173828,-12.939453,-5.065918
2024-12-31 11:28:42.757369,0.081421,-0.006104,1.000366,-3.295898,-13.671875,-4.821777
2024-12-31 11:28:42.765369,0.080444,-0.003418,0.997803,-3.234863,-15.319824,-4.699707
2024-12-31 11:28:42.774369,0.077148,-0.005615,0.996826,-2.807617,-17.639160,-4.760742
2024-12-31 11:28:42.782369,0.072998,-0.006348,0.997925,-3.112793,-20.324707,-4.943848
2024-12-31 11:28:42.791369,0.069702,-0.007324,0.999756,-3.295898,-22.949219,-4.577637
2024-12-31 11:28:42.799369,0.064453,-0.007812,0.999146,-3.540039,-25.329590,-4.699707
2024-12-31 11:28:42.808369,0.059082,-0.009521,0.999756,-3.173828,-27.587891,-4.211426
2024-12-31 11:28:42.816369,0.052979,-0.006104,1.000488,-3.234863,-29.663086,-3.662109
2024-12-31 11:28:42.825369,0.045166,-0.004761,1.000977,-3.417969,-31.799316,-3.417969
2024-12-31 11:28:42.833369,0.046387,0.004150,1.008911,-3.295898,-33.630371,-3.662109
2024-12-31 11:28:42.841369,0.034790,0.008545,1.015137,-2.319336,-34.240723,-5.310059
2024-12-31 11:28:42.850369,0.006226,-0.013184,1.013306,-2.746582,-32.409668,-8.361816
2024-12-31 11:28:42.858369,0.006714,-0.015015,1.018311,-3.540039,-30.334473,-7.812500
2024-12-31 11:28:42.867369,0.003784,-0.006470,1.019409,-3.967285,-28.076172,-5.981445
2024-12-31 11:28:42.875369,0.000000,-0.006348,1.025146,-4.089355,-25.268555,-5.554199
2024-12-31 11:28:42.884369,0.003174,-0.000366,1.033691,-4.333496,-21.911621,-5.126953
2024-12-31 11:28:42.892369,-0.002075,0.002563,1.039062,-4.516602,-16.784668,-4.150391
2024-12-31 11:28:42.901369,-0.003906,-0.000610,1.028198,-3.723145,-9.521484,-2.868652
2024-12-31 11:28:42.909369,-0.012939,-0.008057,1.010864,-3.845215,-3.173828,-2.075195
2024-12-31 11:28:42.918369,0.003906,-0.004272,1.006226,-3.967285,-1.647949,-2.441406
2024-12-31 11:28:42.926369,-0.015381,-0.020630,1.007324,-3.662109,-2.685547,-2.502441
2024-12-31 11:28:42.935369,-0.004028,-0.008423,1.010498,-2.990723,-3.662109,-1.159668
2024-12-31 11:28:42.943369,-0.003174,-0.004639,1.014038,-3.051758,-3.356934,-0.549316
2024-12-31 11:28:42.951369,-0.003784,-0.006714,1.010498,-3.051758,-2.380371,-0.488281
2024-12-31 11:28:42.960369,-0.002808,-0.009033,1.010620,-3.906250,-1.770020,-0.427246
2024-12-31 11:28:42.968369,-0.004395,-0.005005,1.010742,-4.455566,-1.281738,0.000000
2024-12-31 11:28:42.977369,-0.002686,-0.004639,1.009399,-5.004883,-1.037598,0.000000
2024-12-31 11:28:42.985369,-0.001221,-0.003784,1.010010,-5.371094,-1.098633,-0.061035
2024-12-31 11:28:42.994369,0.000488,-0.004883,1.012207,-6.225586,-1.464844,-0.122070
2024-12-31 11:28:43.002369,0.000854,0.000610,1.010376,-8.361816,-1.464844,0.244141
2024-12-31 11:28:43.011369,-0.013428,0.004150,1.006470,-10.375977,-0.854492,0.305176
2024-12-31 11:28:43.019369,-0.014648,0.001099,1.006470,-8.605957,-0.122070,-0.732422
2024-12-31 11:28:43.028369,-0.006592,-0.000488,1.009888,-6.042480,0.122070,-1.770020
2024-12-31 11:28:43.036369,-0.005371,-0.000854,1.011353,-6.042480,0.122070,-1.525879
2024-12-31 11:28:43.045369,-0.008179,-0.005859,1.011108,-7.873535,0.122070,-1.647949
2024-12-31 11:28:43.053369,-0.009277,-0.004639,1.010498,-9.948730,0.244141,-1.098633
2024-12-31 11:28:43.062369,-0.004761,-0.002563,1.010864,-11.962891,0.305176,-1.037598
2024-12-31 11:28:43.070369,-0.004761,0.006592,1.009155,-13.427734,0.244141,-0.671387
2024-12-31 11:28:43.078369,-0.003906,0.011108,1.008667,-13.793945,0.305176,-0.244141
2024-12-31 11:28:43.087369,-0.006104,0.010864,1.008911,-14.160156,0.427246,-0.183105
2024-12-31 11:28:43.095369,-0.009399,0.012085,1.008057,-14.343262,0.488281,-0.549316
2024-12-31 11:28:43.104369,-0.006836,0.009766,1.012451,-13.793945,0.488281,-1.464844
2024-12-31 11:28:43.112369,-0.005249,0.015381,1.010498,-15.075684,0.427246,-0.976562
2024-12-31 11:28:43.121369,-0.004639,0.020630,1.010132,-15.869141,0.488281,-0.427246
2024-12-31 11:28:43.129369,-0.004395,0.023682,1.008545,-17.028809,0.671387,0.000000
2024-12-31 11:28:43.138369,-0.000610,0.032349,1.009033,-17.944336,0.793457,0.427246
2024-12-31 11:28:43.146369,-0.004028,0.032837,1.008667,-18.798828,0.854492,0.793457
2024-12-31 11:28:43.155369,-0.000854,0.040649,1.008423,-19.775391,0.976562,2.014160
2024-12-31 11:28:43.163369,-0.016968,0.017334,1.005737,-21.179199,1.098633,2.441406
2024-12-31 11:28:43.172369,-0.007080,0.033203,1.006348,-18.249512,0.793457,1.525879
2024-12-31 11:28:43.180369,-0.009277,0.034058,1.007812,-16.662598,0.854492,0.915527
2024-12-31 11:28:43.188369,-0.007202,0.036255,1.008545,-16.662598,0.854492,1.647949
2024-12-31 11:28:43.197369,-0.007568,0.042603,1.006958,-17.028809,0.854492,2.197266
2024-12-31 11:28:43.205369,-0.004395,0.046265,1.008179,-17.150879,0.854492,2.685547
2024-12-31 11:28:43.214369,-0.006836,0.051758,1.005859,-18.249512,0.732422,3.540039
2024-12-31 11:28:43.222369,-0.000244,0.059570,1.008301,-18.249512,0.793457,3.479004
2024-12-31 11:28:43.231369,-0.004150,0.060669,1.006226,-19.470215,0.854492,3.112793
2024-12-31 11:28:43.239369,-0.002563,0.066650,1.004150,-20.935059,0.915527,2.746582
2024-12-31 11:28:43.248369,-0.023926,0.044800,1.000854,-19.409180,0.915527,2.380371
2024-12-31 11:28:43.256369,-0.013428,0.056396,1.003540,-14.038086,0.976562,2.319336
2024-12-31 11:28:43.265369,-0.006592,0.058838,1.008545,-10.986328,1.159668,1.342773
2024-12-31 11:28:43.273369,-0.005737,0.058228,1.010132,-12.329102,1.159668,1.525879
2024-12-31 11:28:43.282369,-0.008301,0.066650,1.005737,-15.258789,1.281738,2.807617
2024-12-31 11:28:43.290369,-0.010010,0.067383,1.004150,-16.296387,1.525879,2.868652
2024-12-31 11:28:43.299369,-0.012329,0.067993,1.005005,-15.563965,1.525879,1.831055
2024-12-31 11:28:43.307369,-0.009277,0.073608,1.004883,-13.977051,1.403809,0.549316
2024-12-31 11:28:43.315369,-0.010132,0.078369,1.001953,-13.244629,1.220703,0.305176
2024-12-31 11:28:43.324369,-0.010132,0.079468,1.001221,-11.718750,0.976562,0.122070
2024-12-31 11:28:43.332369,-0.008667,0.079468,1.002197,-8.483887,1.098633,-0.305176
2024-12-31 11:28:43.341369,-0.006836,0.078003,1.003296,-6.469727,1.037598,-0.366211
2024-12-31 11:28:43.349369,-0.008545,0.077881,1.003296,-4.943848,1.098633,-0.366211
2024-12-31 11:28:43.358369,-0.006714,0.081299,1.002930,-3.845215,1.098633,-0.366211
2024-12-31 11:28:43.366369,-0.007690,0.078125,1.004272,-2.685547,1.098633,-0.366211
2024-12-31 11:28:43.375369,-0.007690,0.074219,1.005005,-2.380371,0.976562,-0.427246
2024-12-31 11:28:43.383369,-0.008057,0.074829,1.005371,-2.075195,1.098633,-0.610352
2024-12-31 11:28:43.392369,-0.007202,0.077881,1.004395,-2.380371,0.976562,-0.854492
2024-12-31 11:28:43.400369,-0.007690,0.080322,1.004028,-1.953125,0.976562,-1.098633
2024-12-31 11:28:43.409369,-0.008179,0.079956,1.003296,-1.037598,0.854492,-1.464844
2024-12-31 11:28:43.417369,-0.006836,0.080322,1.004150,0.549316,0.854492,-1.770020
2024-12-31 11:28:43.426369,-0.006836,0.078735,1.003662,1.464844,0.854492,-1.953125
2024-12-31 11:28:43.434369,-0.005981,0.069946,1.005981,3.051758,0.915527,-2.014160
2024-12-31 11:28:43.442369,-0.006958,0.070801,1.005127,2.685547,0.793457,-1.586914
2024-12-31 11:28:43.451369,-0.006836,0.071411,1.004395,2.258301,0.793457,-1.403809
2024-12-31 11:28:43.459369,-0.005981,0.069336,1.006104,2.990723,0.793457,-1.525879
2024-12-31 11:28:43.468369,-0.007080,0.066895,1.006836,2.929688,0.793457,-1.647949
2024-12-31 11:28:43.476369,-0.007446,0.067139,1.005371,2.502441,0.915527,-1.770020
2024-12-31 11:28:43.485369,-0.007690,0.069092,1.006226,2.807617,0.976562,-1.892090
2024-12-31 11:28:43.493369,-0.008911,0.071899,1.003052,3.845215,0.976562,-2.075195
2024-12-31 11:28:43.502369,-0.008301,0.065186,1.006226,5.065918,0.976562,-2.441406
2024-12-31 11:28:43.510369,-0.008667,0.066284,1.004761,5.737305,0.854492,-2.929688
2024-12-31 11:28:43.519369,-0.009155,0.068604,1.005859,6.225586,0.854492,-3.479004
2024-12-31 11:28:43.527369,-0.006104,0.055176,1.006836,6.896973,0.854492,-4.150391
2024-12-31 11:28:43.536369,-0.004761,0.052490,1.007324,6.652832,0.915527,-4.272461
2024-12-31 11:28:43.544369,-0.005493,0.049194,1.008179,5.981445,1.098633,-3.845215
2024-12-31 11:28:43.552369,-0.005493,0.052612,1.005859,5.126953,0.915527,-3.356934
2024-12-31 11:28:43.561369,-0.006470,0.055054,1.005005,5.187988,0.793457,-3.112793
2024-12-31 11:28:43.569369,-0.006592,0.056641,1.003296,6.286621,0.976562,-3.173828
