millis,ax,ay,az,gx,gy,gz
2024-12-31 11:30:02.629520,-0.005615,0.350342,0.941772,-3.051758,0.976562,-0.732422
2024-12-31 11:30:02.637520,-0.006714,0.349243,0.939697,-3.356934,0.793457,-0.732422
2024-12-31 11:30:02.646520,-0.006958,0.351074,0.942139,-3.173828,0.854492,-0.732422
2024-12-31 11:30:02.654520,-0.006714,0.350586,0.940308,-3.295898,0.854492,-0.671387
2024-12-31 11:30:02.663520,-0.005127,0.352173,0.940552,-3.173828,0.793457,-0.732422
2024-12-31 11:30:02.671520,-0.005737,0.353271,0.939819,-3.112793,0.793457,-0.732422
2024-12-31 11:30:02.680520,-0.005615,0.354614,0.940308,-3.112793,0.793457,-0.732422
2024-12-31 11:30:02.688520,-0.005005,0.352905,0.938354,-2.868652,0.732422,-0.732422
2024-12-31 11:30:02.697520,-0.003418,0.354004,0.940186,-2.868652,0.793457,-0.732422
2024-12-31 11:30:02.705520,-0.003296,0.352417,0.939697,-3.479004,0.793457,-0.732422
2024-12-31 11:30:02.714520,-0.003540,0.350708,0.938232,-3.173828,0.793457,-0.732422
2024-12-31 11:30:02.722520,-0.005249,0.349609,0.942505,-2.990723,0.793457,-0.671387
2024-12-31 11:30:02.730520,-0.005981,0.345337,0.942627,-2.685547,0.915527,-0.671387
2024-12-31 11:30:02.739520,-0.007080,0.345947,0.942627,-2.868652,1.037598,-0.732422
2024-12-31 11:30:02.747520,-0.007935,0.347412,0.942261,-2.929688,0.915527,-0.793457
2024-12-31 11:30:02.756520,-0.007812,0.349243,0.940308,-3.417969,0.732422,-0.793457
2024-12-31 11:30:02.764520,-0.007324,0.351196,0.941650,-3.356934,0.915527,-0.793457
2024-12-31 11:30:02.773520,-0.006226,0.353027,0.939209,-3.112793,0.915527,-0.793457
2024-12-31 11:30:02.781520,-0.005371,0.353882,0.940063,-3.173828,0.854492,-0.793457
2024-12-31 11:30:02.790520,-0.003540,0.353760,0.939453,-3.051758,0.854492,-0.793457
2024-12-31 11:30:02.798520,-0.003174,0.352905,0.938843,-2.990723,0.854492,-0.671387
2024-12-31 11:30:02.807520,-0.003052,0.351929,0.940063,-3.234863,0.915527,-0.854492
2024-12-31 11:30:02.815520,-0.004639,0.353516,0.939209,-3.479004,0.854492,-0.793457
2024-12-31 11:30:02.824520,-0.006226,0.352905,0.940063,-3.112793,0.854492,-0.854492
2024-12-31 11:30:02.832520,-0.007690,0.352173,0.938843,-3.112793,0.793457,-0.671387
2024-12-31 11:30:02.841520,-0.007690,0.351318,0.939575,-2.929688,0.854492,-0.732422
2024-12-31 11:30:02.849520,-0.007935,0.349609,0.940918,-2.990723,0.793457,-0.793457
2024-12-31 11:30:02.857520,-0.007568,0.348755,0.940796,-3.051758,0.732422,-0.793457
2024-12-31 11:30:02.866520,-0.005615,0.348999,0.940796,-3.479004,0.793457,-0.915527
2024-12-31 11:30:02.874520,-0.005127,0.348877,0.941528,-3.112793,0.793457,-0.793457
2024-12-31 11:30:02.883520,-0.004150,0.350464,0.941284,-2.929688,0.854492,-0.732422
2024-12-31 11:30:02.891520,-0.004028,0.350830,0.940430,-2.929688,0.854492,-0.793457
2024-12-31 11:30:02.900520,-0.003052,0.352539,0.939575,-2.990723,0.854492,-0.732422
2024-12-31 11:30:02.908520,-0.005249,0.353882,0.937866,-3.112793,0.793457,-0.854492
2024-12-31 11:30:02.917520,-0.006226,0.353882,0.939209,-3.356934,0.793457,-0.732422
2024-12-31 11:30:02.925520,-0.007080,0.353516,0.939209,-2.990723,0.915527,-0.610352
2024-12-31 11:30:02.934520,-0.006714,0.352051,0.939331,-2.868652,0.854492,-0.671387
2024-12-31 11:30:02.942520,-0.007812,0.349976,0.940308,-2.929688,0.793457,-0.671387
2024-12-31 11:30:02.951520,-0.005981,0.348877,0.941650,-2.929688,0.793457,-0.793457
2024-12-31 11:30:02.959520,-0.005493,0.347778,0.941528,-3.051758,0.793457,-0.671387
2024-12-31 11:30:02.967520,-0.004517,0.348511,0.941895,-3.417969,0.732422,-0.793457
2024-12-31 11:30:02.976520,-0.005005,0.349365,0.941528,-2.990723,0.793457,-0.732422
2024-12-31 11:30:02.984520,-0.004883,0.350342,0.941040,-3.173828,0.854492,-0.793457
2024-12-31 11:30:02.993520,-0.004883,0.351807,0.938843,-3.051758,0.854492,-0.732422
2024-12-31 11:30:03.001520,-0.006226,0.351929,0.938965,-3.173828,0.793457,-0.793457
2024-12-31 11:30:03.010520,-0.006348,0.353149,0.940674,-3.112793,0.854492,-0.793457
2024-12-31 11:30:03.018520,-0.005615,0.353638,0.939575,-3.417969,0.793457,-0.793457
2024-12-31 11:30:03.027520,-0.005859,0.353271,0.938721,-3.051758,0.732422,-0.854492
2024-12-31 11:30:03.035520,-0.006348,0.350952,0.941162,-3.051758,0.854492,-0.793457
2024-12-31 11:30:03.044520,-0.005615,0.352051,0.939941,-3.112793,0.854492,-0.732422
2024-12-31 11:30:03.052520,-0.005981,0.351807,0.940308,-3.112793,0.793457,-0.671387
2024-12-31 11:30:03.061520,-0.007202,0.352783,0.941284,-3.112793,0.732422,-0.793457
2024-12-31 11:30:03.069520,-0.005981,0.350830,0.938965,-3.723145,0.732422,-0.793457
2024-12-31 11:30:03.078520,-0.005493,0.349609,0.940308,-3.234863,0.976562,-0.732422
2024-12-31 11:30:03.086520,-0.005737,0.349243,0.941040,-2.746582,0.915527,-0.732422
2024-12-31 11:30:03.094520,-0.003296,0.349243,0.941406,-2.685547,0.854492,-0.793457
2024-12-31 11:30:03.103520,-0.004395,0.350342,0.940796,-2.929688,0.915527,-0.854492
2024-12-31 11:30:03.111520,-0.004639,0.350708,0.941162,-2.929688,0.793457,-0.732422
2024-12-31 11:30:03.120520,-0.005127,0.352417,0.939209,-3.479004,0.854492,-0.732422
2024-12-31 11:30:03.128520,-0.005493,0.353271,0.939209,-3.234863,0.854492,-0.793457
2024-12-31 11:30:03.137520,-0.007324,0.353149,0.938965,-2.990723,0.793457,-0.671387
2024-12-31 11:30:03.145520,-0.007324,0.352783,0.939575,-3.112793,0.732422,-0.793457
2024-12-31 11:30:03.154520,-0.007446,0.351318,0.940186,-2.929688,0.793457,-0.854492
2024-12-31 11:30:03.162520,-0.006104,0.351196,0.940308,-2.868652,0.915527,-0.732422
2024-12-31 11:30:03.171520,-0.005249,0.350464,0.940796,-2.990723,0.915527,-0.793457
2024-12-31 11:30:03.179520,-0.005371,0.349609,0.940918,-3.295898,0.854492,-0.854492
2024-12-31 11:30:03.188520,-0.003906,0.350464,0.939697,-2.929688,0.854492,-0.854492
2024-12-31 11:30:03.196520,-0.004395,0.349976,0.941528,-2.990723,0.854492,-0.793457
2024-12-31 11:30:03.205520,-0.004883,0.350342,0.940308,-3.234863,0.732422,-0.854492
2024-12-31 11:30:03.213520,-0.006836,0.351685,0.941284,-3.295898,0.854492,-0.671387
2024-12-31 11:30:03.221520,-0.007324,0.351074,0.939941,-3.173828,0.854492,-0.671387
2024-12-31 11:30:03.230520,-0.007202,0.351807,0.939209,-3.295898,0.732422,-0.793457
2024-12-31 11:30:03.238520,-0.006104,0.351562,0.940430,-3.173828,0.793457,-0.732422
2024-12-31 11:30:03.247520,-0.006470,0.350830,0.940308,-3.051758,0.793457,-0.793457
2024-12-31 11:30:03.255520,-0.005859,0.350708,0.940308,-3.112793,0.793457,-0.732422
2024-12-31 11:30:03.264520,-0.004272,0.349854,0.940674,-2.990723,0.793457,-0.732422
2024-12-31 11:30:03.272520,-0.005249,0.351074,0.940552,-3.051758,0.854492,-0.671387
2024-12-31 11:30:03.281520,-0.004883,0.352173,0.941895,-3.295898,0.793457,-0.793457
2024-12-31 11:30:03.289520,-0.004517,0.349121,0.935303,-3.234863,0.915527,-0.732422
2024-12-31 11:30:03.298520,-0.006226,0.354004,0.942749,-3.356934,0.732422,-0.793457
2024-12-31 11:30:03.306520,-0.004639,0.348755,0.938721,-2.807617,0.793457,-0.854492
2024-12-31 11:30:03.315520,-0.005981,0.353760,0.940063,-2.929688,0.854492,-0.793457
2024-12-31 11:30:03.323520,-0.006348,0.350220,0.941284,-2.807617,0.976562,-0.793457
2024-12-31 11:30:03.331520,-0.005371,0.353149,0.939819,-3.356934,0.854492,-0.793457
2024-12-31 11:30:03.340520,-0.005615,0.351440,0.941772,-2.929688,0.732422,-0.793457
2024-12-31 11:30:03.348520,-0.005249,0.350220,0.938477,-3.051758,0.793457,-0.854492
2024-12-31 11:30:03.357520,-0.006348,0.352417,0.942993,-3.234863,0.793457,-0.793457
2024-12-31 11:30:03.365520,-0.005493,0.348389,0.940186,-2.929688,0.854492,-0.732422
2024-12-31 11:30:03.374520,-0.005981,0.351196,0.943115,-3.112793,0.854492,-0.793457
2024-12-31 11:30:03.382520,-0.006348,0.349854,0.942139,-3.417969,0.732422,-0.793457
2024-12-31 11:30:03.391520,-0.118896,0.873901,0.767090,-0.549316,1.953125,-1.159668
2024-12-31 11:30:03.399520,-0.051147,0.419312,0.969604,70.983887,4.821777,-22.827148
2024-12-31 11:30:03.408520,0.053711,0.121216,0.971558,112.426758,-2.075195,-46.875000
2024-12-31 11:30:03.416520,0.008179,0.230591,0.979370,64.086914,4.882812,-28.503418
2024-12-31 11:30:03.425520,0.042358,0.308716,0.964600,47.424316,1.159668,-19.042969
2024-12-31 11:30:03.433520,-0.025635,0.310181,0.926636,28.747559,2.258301,-15.380859
2024-12-31 11:30:03.442520,-0.014526,0.286987,0.988403,49.499512,0.976562,-20.202637
2024-12-31 11:30:03.450520,-0.003906,0.271729,1.010986,50.354004,6.042480,-21.362305
2024-12-31 11:30:03.458520,-0.001709,0.253296,0.977295,42.297363,14.038086,-19.226074
2024-12-31 11:30:03.467520,0.018066,0.268921,0.957764,56.335449,14.892578,-20.385742
2024-12-31 11:30:03.475520,0.016113,0.277466,0.956787,58.288574,13.610840,-21.545410
2024-12-31 11:30:03.484520,0.020508,0.254761,0.959717,63.781738,10.559082,-24.353027
2024-12-31 11:30:03.492520,0.011230,0.215942,0.991455,70.922852,8.850098,-25.146484
2024-12-31 11:30:03.501520,0.017212,0.189209,0.996216,70.922852,10.498047,-25.878906
2024-12-31 11:30:03.509520,0.021240,0.169067,0.992065,70.312500,13.244629,-24.719238
2024-12-31 11:30:03.518520,0.029541,0.175537,0.981812,71.411133,11.779785,-25.207520
2024-12-31 11:30:03.526520,0.030029,0.135376,1.002808,67.382812,9.399414,-24.963379
2024-12-31 11:30:03.535520,0.067139,0.236572,0.926147,54.199219,10.375977,-21.850586
2024-12-31 11:30:03.543520,0.016113,0.165527,1.009766,55.236816,11.413574,-19.165039
2024-12-31 11:30:03.552520,0.004517,0.003784,1.077026,59.631348,13.671875,-21.606445
2024-12-31 11:30:03.560520,0.042236,0.201050,1.004028,52.429199,22.521973,-19.531250
2024-12-31 11:30:03.568520,0.015625,0.109009,1.024292,63.964844,27.587891,-22.399902
2024-12-31 11:30:03.577520,0.057495,0.094604,1.005005,62.255859,35.095215,-21.423340
2024-12-31 11:30:03.585520,0.063965,0.115479,0.982300,60.180664,36.437988,-20.446777
2024-12-31 11:30:03.594520,0.065063,0.111572,0.984985,63.354492,35.583496,-20.751953
2024-12-31 11:30:03.602520,0.057861,0.086060,1.006714,69.885254,33.508301,-23.437500
2024-12-31 11:30:03.611520,0.060181,0.052246,1.027710,72.204590,36.071777,-25.085449
2024-12-31 11:30:03.619520,0.060181,0.070801,1.025879,72.326660,43.457031,-23.803711
2024-12-31 11:30:03.628520,0.068359,0.069946,1.020020,77.758789,52.246094,-24.047852
2024-12-31 11:30:03.636520,0.097778,0.046509,0.994751,87.280273,61.462402,-25.756836
2024-12-31 11:30:03.645520,0.120239,-0.399902,1.165283,87.768555,67.687988,-23.376465
2024-12-31 11:30:03.653520,0.200073,0.043823,0.891479,27.770996,72.509766,-4.272461
2024-12-31 11:30:03.662520,0.198853,0.112915,0.904175,6.103516,56.457520,0.793457
2024-12-31 11:30:03.670520,0.181396,0.215332,0.925293,2.746582,30.822754,-4.394531
2024-12-31 11:30:03.679520,0.322998,0.372559,0.929932,-9.277344,12.634277,-16.296387
2024-12-31 11:30:03.687520,-0.006470,-0.327515,1.134521,-20.141602,9.399414,-32.531738
2024-12-31 11:30:03.695520,0.194946,-0.106323,0.978027,-2.624512,9.399414,-22.094727
2024-12-31 11:30:03.704520,0.124878,0.061279,0.994019,1.953125,13.610840,-12.756348
2024-12-31 11:30:03.712520,0.121826,0.279541,0.936523,-1.708984,15.747070,-14.648438
2024-12-31 11:30:03.721520,0.300171,-0.268188,1.018799,-14.099121,10.498047,-23.559570
2024-12-31 11:30:03.729520,0.171387,-0.203613,0.948730,-3.417969,5.737305,-28.198242
2024-12-31 11:30:03.738520,0.188232,-0.049805,0.944336,2.929688,-6.958008,-9.704590
2024-12-31 11:30:03.746520,0.167236,-0.058228,0.981689,-1.159668,-14.709473,-8.178711
2024-12-31 11:30:03.755520,0.166138,0.002319,0.988281,-2.258301,-20.996094,-7.324219
2024-12-31 11:30:03.763520,0.193481,0.075684,0.993286,-4.211426,-23.986816,-8.483887
2024-12-31 11:30:03.772520,0.145386,-0.081909,0.983765,-5.920410,-24.597168,-14.343262
2024-12-31 11:30:03.780520,0.158081,-0.032715,0.952759,-4.150391,-30.334473,-11.596680
2024-12-31 11:30:03.789520,0.139648,-0.030518,0.966064,-4.150391,-39.306641,-9.826660
2024-12-31 11:30:03.797520,0.182007,-0.002808,0.900879,-4.394531,-51.757812,-7.080078
2024-12-31 11:30:03.806520,0.401855,0.086792,1.010498,-5.371094,-71.472168,-3.601074
2024-12-31 11:30:03.814520,0.359253,-0.016724,0.992798,-14.892578,-62.255859,-18.920898
2024-12-31 11:30:03.822520,-0.448975,0.006714,1.255737,-20.019531,-57.861328,-20.690918
2024-12-31 11:30:03.831520,-0.019897,-0.124146,1.110352,0.305176,-48.583984,13.549805
2024-12-31 11:30:03.839520,-0.011719,0.038452,1.107544,0.000000,-5.798340,15.136719
2024-12-31 11:30:03.848520,0.070068,-0.111206,1.007080,0.122070,22.216797,1.586914
2024-12-31 11:30:03.856520,0.215942,-0.016113,0.787231,0.183105,26.428223,7.629395
2024-12-31 11:30:03.865520,0.165405,0.026123,0.821411,-1.892090,-17.578125,3.906250
2024-12-31 11:30:03.873520,0.124268,-0.039062,0.910522,-3.540039,-60.485840,-4.455566
2024-12-31 11:30:03.882520,0.016724,0.005005,1.065918,-3.295898,-76.049805,-1.464844
2024-12-31 11:30:03.890520,-0.003540,0.006226,1.088989,-2.685547,-66.467285,0.244141
2024-12-31 11:30:03.899520,-0.036621,-0.023926,1.128906,-1.525879,-49.072266,-0.671387
2024-12-31 11:30:03.907520,-0.048462,0.022949,1.105713,-0.427246,-26.306152,-0.549316
2024-12-31 11:30:03.916520,-0.101196,0.068726,1.150391,-1.403809,-11.413574,-0.488281
2024-12-31 11:30:03.924520,0.087280,0.027100,1.035645,-5.676270,6.408691,-4.089355
2024-12-31 11:30:03.932520,-0.066162,-0.028320,1.100220,-6.469727,28.747559,2.807617
2024-12-31 11:30:03.941520,0.024292,0.021973,1.031250,-4.882812,49.743652,3.784180
2024-12-31 11:30:03.949520,0.062988,0.029175,1.056885,-4.333496,70.495605,-12.145996
2024-12-31 11:30:03.958520,0.135864,0.097534,0.913818,0.549316,85.815430,-8.911133
2024-12-31 11:30:03.966520,0.176514,0.085083,0.902466,-0.732422,79.101562,-3.479004
2024-12-31 11:30:03.975520,0.188721,0.016357,0.859985,-3.662109,52.734375,-7.995605
2024-12-31 11:30:03.983520,0.139282,-0.122070,0.927124,-3.845215,21.850586,-10.131836
2024-12-31 11:30:03.992520,0.116333,-0.018799,0.972656,-5.310059,-1.037598,-7.324219
2024-12-31 11:30:04.000520,0.068726,-0.096191,1.026367,-6.591797,-10.498047,-7.080078
2024-12-31 11:30:04.009520,0.051880,0.105225,1.096436,-7.019043,-7.202148,-4.211426
2024-12-31 11:30:04.017520,-0.018311,-0.622192,1.175049,-16.357422,6.408691,-4.943848
2024-12-31 11:30:04.026520,0.075806,0.038086,0.904663,-35.461426,28.259277,8.178711
2024-12-31 11:30:04.034520,0.075562,0.014282,1.032471,-7.629395,30.517578,2.136230
2024-12-31 11:30:04.043520,0.101440,-0.026489,0.979492,-2.868652,32.409668,1.037598
2024-12-31 11:30:04.051520,-0.004150,-0.142944,0.882568,-10.437012,18.798828,-0.976562
2024-12-31 11:30:04.059520,-0.094360,-0.124756,0.955078,-3.967285,-3.601074,4.516602
2024-12-31 11:30:04.068520,0.058716,0.061401,0.955688,2.319336,-28.442383,7.385254
2024-12-31 11:30:04.076520,-0.032959,0.012573,1.055786,8.422852,-35.583496,-2.319336
2024-12-31 11:30:04.085520,0.036865,0.005249,1.077637,14.953613,-22.705078,-7.019043
2024-12-31 11:30:04.093520,0.217163,0.091187,1.125854,20.996094,-3.540039,0.671387
2024-12-31 11:30:04.102520,-0.052979,-0.035645,0.937134,5.737305,8.300781,6.591797
2024-12-31 11:30:04.110520,0.055420,0.050537,0.929688,-6.225586,-1.220703,16.906738
2024-12-31 11:30:04.119520,0.106079,0.024048,1.071167,-5.859375,-15.747070,11.047363
2024-12-31 11:30:04.127520,0.311890,0.250000,1.194336,-10.070801,-20.690918,11.779785
2024-12-31 11:30:04.136520,-0.237549,-0.278442,0.843018,0.549316,-10.253906,0.122070
2024-12-31 11:30:04.144520,0.019043,-0.208618,0.948486,-3.723145,-6.103516,11.352539
2024-12-31 11:30:04.153520,0.019043,-0.115356,0.981323,-10.620117,-6.469727,22.521973
2024-12-31 11:30:04.161520,0.036377,-0.100708,1.034546,-16.967773,-11.840820,28.198242
2024-12-31 11:30:04.169520,0.259521,0.168701,1.291138,-31.433105,-16.723633,33.935547
2024-12-31 11:30:04.178520,-0.222900,-0.226807,0.824951,-32.531738,-16.723633,28.564453
2024-12-31 11:30:04.186520,-0.170776,-0.162964,0.828369,-26.672363,-13.244629,21.240234
2024-12-31 11:30:04.195520,0.076172,0.022095,0.916626,-10.253906,-9.277344,15.563965
2024-12-31 11:30:04.203520,0.072876,0.039429,1.040161,0.122070,-7.751465,14.160156
2024-12-31 11:30:04.212520,-0.189209,-0.127319,0.834106,7.812500,-10.009766,14.709473
2024-12-31 11:30:04.220520,0.008423,-0.083374,0.890015,7.141113,-12.145996,11.596680
2024-12-31 11:30:04.229520,0.042114,-0.042114,0.980103,8.911133,-13.610840,9.460449
2024-12-31 11:30:04.237520,0.320435,0.207764,1.328369,-2.685547,-14.526367,17.639160
2024-12-31 11:30:04.246520,-0.036987,0.082153,1.150635,5.126953,-11.047363,8.911133
2024-12-31 11:30:04.254520,0.060913,-0.022827,1.029175,20.812988,-15.625000,5.676270
2024-12-31 11:30:04.263520,0.065430,-0.073608,1.097900,35.278320,-17.028809,2.380371
2024-12-31 11:30:04.271520,0.120117,-0.164429,1.011841,35.034180,-15.625000,2.685547
2024-12-31 11:30:04.280520,0.162231,0.000122,0.473389,16.662598,-22.338867,3.295898
2024-12-31 11:30:04.288520,0.292603,0.206909,1.020996,2.502441,-95.947266,-0.305176
2024-12-31 11:30:04.296520,0.220215,0.059814,1.654663,-6.896973,-130.004883,-3.662109
2024-12-31 11:30:04.305520,0.127319,0.126587,1.120483,-8.605957,-56.213379,-15.686035
2024-12-31 11:30:04.313520,0.080444,0.083130,0.989258,-0.427246,-3.234863,-24.719238
2024-12-31 11:30:04.322520,0.005371,-0.107300,0.989014,-5.859375,-6.958008,-44.494629
2024-12-31 11:30:04.330520,0.093994,0.230713,1.049316,-16.662598,-6.103516,-51.879883
2024-12-31 11:30:04.339520,0.106934,-0.020630,1.033447,-14.587402,-1.525879,-52.124023
2024-12-31 11:30:04.347520,0.193481,0.250977,1.065918,-52.612305,1.525879,-43.701172
2024-12-31 11:30:04.356520,0.082397,0.117065,1.027344,-109.130859,3.295898,-39.550781
2024-12-31 11:30:04.364520,0.042114,0.213013,0.955200,-122.619629,0.366211,-23.559570
2024-12-31 11:30:04.373520,-0.003174,0.194580,0.948975,-104.553223,0.183105,-2.075195
2024-12-31 11:30:04.381520,-0.007935,0.201172,0.948975,-60.913086,1.037598,6.896973
2024-12-31 11:30:04.390520,-0.030273,0.203735,0.935669,-18.005371,0.488281,9.887695
2024-12-31 11:30:04.398520,-0.010742,0.190674,0.942017,32.897949,-0.061035,2.502441
2024-12-31 11:30:04.406520,-0.016724,0.056396,0.999023,91.796875,0.427246,-1.770020
2024-12-31 11:30:04.415520,-0.028198,-0.017578,1.042725,99.670410,0.793457,-4.943848
2024-12-31 11:30:04.423520,-0.006226,0.042725,1.010132,72.692871,0.427246,-13.488770
2024-12-31 11:30:04.432520,-0.003418,0.117432,1.023560,63.110352,-0.244141,-18.615723
2024-12-31 11:30:04.440520,0.032349,-0.333496,1.068481,50.170898,-0.244141,-20.446777
2024-12-31 11:30:04.449520,0.021362,0.122559,1.007446,13.061523,-0.610352,-11.718750
2024-12-31 11:30:04.457520,-0.035278,0.010498,1.024536,2.685547,-2.075195,-14.404297
2024-12-31 11:30:04.466520,0.031860,0.025635,1.009277,1.159668,-2.319336,-14.221191
2024-12-31 11:30:04.474520,-0.139038,-0.297729,0.999878,4.821777,0.000000,-13.549805
2024-12-31 11:30:04.483520,0.351196,0.951050,1.036133,0.549316,0.488281,-0.549316
2024-12-31 11:30:04.491520,-0.310791,-0.280762,0.995850,-10.803223,5.004883,-3.845215
2024-12-31 11:30:04.500520,0.020630,-0.307129,1.029907,-3.906250,9.216309,-14.282227
2024-12-31 11:30:04.508520,-0.040161,0.110962,1.012573,0.671387,1.403809,-24.230957
2024-12-31 11:30:04.517520,-0.030029,-0.100586,1.015015,-0.732422,0.671387,-27.709961
2024-12-31 11:30:04.525520,0.205322,0.245483,0.985596,0.549316,3.295898,-16.113281
2024-12-31 11:30:04.533520,0.251831,0.318970,1.020508,2.136230,1.342773,-23.315430
2024-12-31 11:30:04.542520,0.029053,0.198608,0.969238,1.708984,2.258301,-24.169922
2024-12-31 11:30:04.550520,-0.061279,0.167480,1.008545,-0.305176,0.610352,-27.404785
2024-12-31 11:30:04.559520,0.305298,0.161011,1.023804,1.403809,2.685547,-18.737793
2024-12-31 11:30:04.567520,-0.086060,0.238159,0.988403,-3.295898,3.662109,-14.648438
2024-12-31 11:30:04.576520,-0.052612,0.057373,1.016235,0.488281,-1.159668,-21.972656
2024-12-31 11:30:04.584520,-0.011108,0.034790,0.913940,-2.441406,5.554199,-17.272949
2024-12-31 11:30:04.593520,0.137695,0.044189,1.049805,-4.394531,-0.915527,-17.211914
2024-12-31 11:30:04.601520,-0.062256,0.187988,0.943237,-2.197266,5.920410,-15.502930
2024-12-31 11:30:04.610520,0.163696,0.081787,1.071167,-2.380371,7.995605,-29.785156
2024-12-31 11:30:04.618520,0.286621,0.198486,0.985474,-11.474609,5.126953,-39.184570
2024-12-31 11:30:04.627520,-0.011597,0.078735,0.982788,-7.385254,0.915527,-42.846680
2024-12-31 11:30:04.635520,0.065186,0.047607,1.079468,-0.427246,-0.976562,-37.414551
2024-12-31 11:30:04.644520,-0.231201,-0.101440,0.956177,-5.065918,2.746582,-31.372070
2024-12-31 11:30:04.652520,-0.116943,-0.166382,1.088745,-8.117676,-1.708984,-25.512695
2024-12-31 11:30:04.660520,0.031128,-0.133057,1.084717,-4.821777,-2.075195,-12.939453
2024-12-31 11:30:04.669520,-0.039429,-0.203125,1.022217,-5.798340,1.586914,-12.023926
2024-12-31 11:30:04.677520,-0.236938,-0.321411,1.000488,-3.967285,-1.220703,-18.981934
2024-12-31 11:30:04.686520,-0.050415,-0.254150,1.036499,-9.216309,0.427246,-19.042969
2024-12-31 11:30:04.694520,0.016357,-0.252563,0.956665,-6.713867,0.183105,-11.901855
2024-12-31 11:30:04.703520,-0.137573,-0.283813,1.000366,-2.929688,-1.525879,-11.352539
2024-12-31 11:30:04.711520,-0.214600,-0.437988,1.025635,-9.094238,0.610352,-5.615234
2024-12-31 11:30:04.720520,-0.083374,-0.275513,1.014526,-7.568359,-2.441406,0.732422
2024-12-31 11:30:04.728520,0.057739,-0.149414,1.026245,-7.202148,-0.732422,6.347656
2024-12-31 11:30:04.737520,-0.004028,-0.238892,1.017822,-11.596680,3.662109,5.676270
2024-12-31 11:30:04.745520,-0.049194,-0.301025,1.030640,-22.521973,7.080078,11.169434
2024-12-31 11:30:04.754520,-0.118408,-0.334351,1.049194,-38.513184,8.605957,21.362305
2024-12-31 11:30:04.762520,-0.205688,-0.336060,1.045166,-46.386719,8.239746,34.545898
2024-12-31 11:30:04.771520,-0.123169,-0.361694,1.028198,-30.944824,12.390137,41.625977
2024-12-31 11:30:04.779520,-0.175415,-0.343750,0.920532,-19.104004,12.817383,45.532227
2024-12-31 11:30:04.787520,-0.112793,-0.190918,1.076660,-17.089844,6.225586,57.800293
2024-12-31 11:30:04.796520,-0.126953,-0.255493,1.006714,-20.385742,4.638672,62.561035
2024-12-31 11:30:04.804520,-0.058716,-0.153564,1.017456,-17.150879,5.920410,61.218262
2024-12-31 11:30:04.813520,-0.230103,-0.190552,1.066162,-18.371582,1.953125,59.509277
2024-12-31 11:30:04.821520,-0.155273,-0.204224,0.946533,-13.183594,5.065918,57.067871
2024-12-31 11:30:04.830520,-0.148804,-0.134155,0.999268,-9.399414,3.234863,57.678223
2024-12-31 11:30:04.838520,0.013184,-0.105225,0.960815,0.915527,2.319336,65.307617
2024-12-31 11:30:04.847520,0.023193,-0.059814,0.905273,-1.953125,-0.366211,69.885254
2024-12-31 11:30:04.855520,-0.029419,-0.040161,0.990112,-7.751465,-1.464844,67.199707
2024-12-31 11:30:04.864520,-0.104248,-0.056030,1.044800,-6.591797,2.258301,60.729980
2024-12-31 11:30:04.872520,-0.011719,0.026367,1.008423,-6.591797,6.896973,62.622070
2024-12-31 11:30:04.881520,-0.025269,-0.002930,0.952881,6.469727,5.615234,72.265625
2024-12-31 11:30:04.889520,-0.127319,0.042236,1.032104,21.545410,13.854980,85.937500
2024-12-31 11:30:04.897520,0.111816,0.104492,1.123901,34.301758,6.286621,87.097168
2024-12-31 11:30:04.906520,0.094849,0.067749,1.075195,28.503418,0.183105,88.378906
2024-12-31 11:30:04.914520,-0.016357,0.060059,1.001099,15.441895,5.187988,76.965332
2024-12-31 11:30:04.923520,0.113403,0.183105,1.046143,21.362305,5.676270,65.917969
2024-12-31 11:30:04.931520,0.039551,0.039917,0.991821,39.794922,-2.746582,57.006836
2024-12-31 11:30:04.940520,-0.144531,-0.130981,1.000488,41.564941,4.089355,51.208496
2024-12-31 11:30:04.948520,-0.061157,0.035522,0.973267,16.052246,-0.427246,61.767578
2024-12-31 11:30:04.957520,0.089844,0.285767,1.054199,-9.155273,-5.920410,71.105957
2024-12-31 11:30:04.965520,-0.033936,0.155151,0.951416,-8.789062,-2.441406,65.979004
2024-12-31 11:30:04.974520,0.041138,0.072876,1.093994,10.498047,1.098633,55.847168
2024-12-31 11:30:04.982520,-0.052490,0.082886,0.971558,0.061035,3.723145,57.250977
2024-12-31 11:30:04.991520,0.083984,0.274414,1.107788,-8.361816,3.662109,53.283691
2024-12-31 11:30:04.999520,0.051880,0.219116,1.033447,-1.098633,3.112793,44.555664
2024-12-31 11:30:05.008520,-0.017456,0.215210,1.010376,-0.488281,3.356934,39.245605
2024-12-31 11:30:05.016520,-0.042358,0.322876,1.061646,-14.038086,-0.732422,39.672852
2024-12-31 11:30:05.024520,-0.005005,0.284668,0.961182,0.671387,-3.295898,35.095215
2024-12-31 11:30:05.033520,0.033203,0.361328,1.008301,-1.098633,-4.272461,32.836914
2024-12-31 11:30:05.041520,-0.020142,0.393433,1.019775,-1.770020,-0.427246,25.329590
2024-12-31 11:30:05.050520,-0.010010,0.321289,1.031006,-5.187988,0.244141,22.583008
2024-12-31 11:30:05.058520,-0.015503,0.402954,1.005615,-9.948730,3.356934,20.874023
2024-12-31 11:30:05.067520,0.048950,0.262695,1.006226,-2.746582,1.220703,13.305664
2024-12-31 11:30:05.075520,-0.041870,0.225220,1.007080,-1.281738,0.793457,1.525879
2024-12-31 11:30:05.084520,-0.046875,0.358032,0.995483,0.122070,0.183105,0.061035
2024-12-31 11:30:05.092520,-0.033203,0.534302,0.996460,2.136230,-1.586914,-5.187988
2024-12-31 11:30:05.101520,0.043335,0.546997,1.026489,2.319336,-0.488281,-14.953613
2024-12-31 11:30:05.109520,0.045288,0.486328,1.017578,-0.366211,1.098633,-27.343750
2024-12-31 11:30:05.118520,0.021729,0.466553,1.031250,-6.896973,6.103516,-38.330078
2024-12-31 11:30:05.126520,0.021362,0.344727,0.978271,-0.793457,2.929688,-49.682617
2024-12-31 11:30:05.134520,-0.026001,0.293945,0.996704,-2.441406,0.732422,-59.020996
2024-12-31 11:30:05.143520,0.034424,0.279785,1.025879,-4.211426,-3.479004,-66.467285
2024-12-31 11:30:05.151520,-0.093384,0.238647,0.925781,1.525879,-3.845215,-70.190430
2024-12-31 11:30:05.160520,0.150024,0.223999,1.000610,-0.244141,-0.244141,-63.903809
2024-12-31 11:30:05.168520,-0.031250,0.225952,1.004639,-9.460449,0.915527,-59.448242
2024-12-31 11:30:05.177520,-0.066895,0.151611,1.031860,9.094238,4.699707,-64.575195
2024-12-31 11:30:05.185520,0.033203,0.065552,0.943970,4.455566,5.676270,-71.350098
2024-12-31 11:30:05.194520,-0.084351,0.096558,1.031982,-12.145996,-0.427246,-75.439453
2024-12-31 11:30:05.202520,0.083496,0.085205,1.058472,-4.699707,-3.173828,-80.261230
2024-12-31 11:30:05.211520,-0.056152,0.200928,0.911255,-1.892090,1.525879,-80.139160
2024-12-31 11:30:05.219520,-0.062378,0.206421,1.037476,-4.394531,-0.549316,-85.998535
2024-12-31 11:30:05.228520,0.041748,0.005615,1.006592,2.136230,4.577637,-77.880859
2024-12-31 11:30:05.236520,-0.112305,0.028564,1.073364,-5.615234,3.417969,-72.631836
2024-12-31 11:30:05.245520,-0.005005,0.017700,0.975952,-4.638672,-6.103516,-69.213867
2024-12-31 11:30:05.253520,-0.199219,-0.083496,1.002930,1.892090,-3.601074,-68.237305
2024-12-31 11:30:05.261520,0.010986,-0.018066,1.052368,-4.089355,-0.549316,-71.105957
2024-12-31 11:30:05.270520,-0.094604,-0.088867,1.001953,-9.338379,5.554199,-70.617676
2024-12-31 11:30:05.278520,-0.070679,-0.045898,1.055054,2.258301,0.000000,-72.937012
2024-12-31 11:30:05.287520,-0.041016,-0.094971,0.990112,-6.530762,1.464844,-70.739746
2024-12-31 11:30:05.295520,-0.168091,-0.238403,1.084839,-6.347656,-1.098633,-74.096680
2024-12-31 11:30:05.304520,-0.117554,-0.093628,0.915649,-4.882812,1.892090,-76.293945
2024-12-31 11:30:05.312520,-0.137451,-0.173584,0.994629,-7.934570,-1.586914,-70.617676
2024-12-31 11:30:05.321520,0.101929,-0.306030,1.106934,-4.516602,0.915527,-60.974121
2024-12-31 11:30:05.329520,-0.027222,-0.269043,1.044678,0.549316,2.380371,-54.382324
2024-12-31 11:30:05.338520,-0.043823,-0.229736,0.962524,-1.831055,0.244141,-53.894043
2024-12-31 11:30:05.346520,-0.048584,-0.250977,0.999268,-2.319336,-4.150391,-51.330566
2024-12-31 11:30:05.355520,-0.007324,-0.342285,1.036255,-1.220703,1.098633,-40.527344
2024-12-31 11:30:05.363520,-0.121094,-0.348022,1.001831,-5.432129,1.708984,-31.372070
2024-12-31 11:30:05.371520,-0.112427,-0.423706,1.034424,-3.784180,-0.793457,-20.446777
2024-12-31 11:30:05.380520,-0.130615,-0.510254,1.050049,-10.192871,2.258301,-15.319824
2024-12-31 11:30:05.388520,-0.091431,-0.455688,0.995483,-7.446289,0.549316,-20.812988
2024-12-31 11:30:05.397520,-0.065063,-0.444824,1.001099,-3.723145,1.037598,-12.573242
2024-12-31 11:30:05.405520,-0.098389,-0.449097,1.017700,-5.737305,1.525879,-3.051758
2024-12-31 11:30:05.414520,-0.016968,-0.126831,1.013672,-5.676270,1.220703,1.098633
2024-12-31 11:30:05.422520,-0.054077,-0.264038,1.024902,-9.643555,2.075195,6.530762
2024-12-31 11:30:05.431520,-0.130493,-0.455200,0.997559,-9.521484,3.601074,17.333984
2024-12-31 11:30:05.439520,-0.175903,-0.533081,0.995361,-8.483887,3.051758,21.057129
2024-12-31 11:30:05.448520,0.076904,-0.337891,1.067139,-12.329102,3.784180,29.296875
2024-12-31 11:30:05.456520,-0.039062,-0.398682,0.994873,-5.981445,4.272461,42.175293
2024-12-31 11:30:05.465520,-0.162476,-0.375977,1.036255,-6.530762,7.934570,47.485352
2024-12-31 11:30:05.473520,-0.102417,-0.295898,0.999634,-5.676270,6.042480,48.706055
2024-12-31 11:30:05.482520,-0.083618,-0.343872,0.929077,-1.159668,2.624512,49.804688
2024-12-31 11:30:05.490520,-0.014282,-0.295410,0.933716,0.915527,0.793457,51.757812
2024-12-31 11:30:05.498520,-0.018677,-0.197388,0.946533,-1.525879,6.042480,65.124512
2024-12-31 11:30:05.507520,0.075562,-0.110596,0.907104,-6.042480,6.835938,84.655762
2024-12-31 11:30:05.515520,-0.052490,-0.090698,1.060181,-6.103516,-4.089355,83.129883
2024-12-31 11:30:05.524520,-0.025146,-0.011719,1.063354,1.342773,-1.342773,74.645996
2024-12-31 11:30:05.532520,-0.036133,-0.032471,0.954834,4.821777,7.568359,74.218750
2024-12-31 11:30:05.541520,-0.084351,-0.091675,0.924927,0.488281,6.469727,78.491211
2024-12-31 11:30:05.549520,-0.005249,-0.013184,0.987305,-4.333496,1.892090,83.190918
2024-12-31 11:30:05.558520,-0.007690,-0.063965,0.999878,0.305176,3.295898,74.462891
2024-12-31 11:30:05.566520,-0.072754,-0.087036,1.022217,-10.131836,14.343262,66.650391
2024-12-31 11:30:05.575520,-0.030640,0.021606,1.035156,-14.221191,10.192871,70.861816
2024-12-31 11:30:05.583520,-0.004883,0.081177,1.126343,-13.305664,1.953125,70.922852
2024-12-31 11:30:05.592520,-0.033691,0.025024,0.965698,-17.883301,-3.967285,54.443359
2024-12-31 11:30:05.600520,0.061890,0.016113,0.911987,-18.432617,0.793457,45.654297
2024-12-31 11:30:05.609520,0.050049,0.077393,1.067749,-15.075684,2.075195,44.677734
2024-12-31 11:30:05.617520,0.038574,-0.073242,0.938599,-15.075684,1.770020,16.967773
2024-12-31 11:30:05.625520,0.072998,0.023071,0.960815,-21.423340,0.732422,-44.799805
2024-12-31 11:30:05.634520,-0.002075,0.034058,1.014648,-10.437012,-0.305176,16.784668
2024-12-31 11:30:05.642520,-0.043335,0.037964,0.904785,-23.376465,-0.122070,50.537109
2024-12-31 11:30:05.651520,-0.023315,0.135864,1.084106,-20.385742,3.112793,46.447754
2024-12-31 11:30:05.659520,-0.006348,0.091309,1.044922,-3.112793,-3.540039,43.945312
2024-12-31 11:30:05.668520,0.056763,0.096313,1.075928,1.525879,1.281738,37.170410
2024-12-31 11:30:05.676520,0.048950,0.065430,0.886108,-2.807617,1.525879,36.926270
2024-12-31 11:30:05.685520,0.013184,0.196655,1.157959,-6.652832,-0.366211,40.161133
2024-12-31 11:30:05.693520,0.048096,0.160278,1.028442,2.075195,1.831055,37.231445
2024-12-31 11:30:05.702520,0.021606,0.203857,1.016235,9.460449,4.516602,34.606934
2024-12-31 11:30:05.710520,-0.035034,0.216797,0.993652,13.000488,-0.366211,35.461426
2024-12-31 11:30:05.719520,-0.046021,0.296997,1.117188,14.221191,-0.488281,35.644531
2024-12-31 11:30:05.727520,0.122681,0.275635,1.095215,14.221191,8.178711,28.808594
2024-12-31 11:30:05.735520,0.032959,0.230835,1.049805,10.437012,4.821777,30.883789
2024-12-31 11:30:05.744520,-0.027710,0.262451,1.012573,8.178711,-4.638672,33.081055
2024-12-31 11:30:05.752520,-0.021973,0.291382,0.968750,17.333984,-2.807617,29.357910
2024-12-31 11:30:05.761520,0.022583,0.365112,1.119385,14.221191,0.915527,26.000977
2024-12-31 11:30:05.769520,0.022095,0.323364,1.052979,5.981445,2.319336,23.071289
2024-12-31 11:30:05.778520,-0.013428,0.288086,1.010498,-1.037598,6.225586,17.272949
2024-12-31 11:30:05.786520,-0.006836,0.276489,0.980469,-5.126953,5.371094,18.310547
2024-12-31 11:30:05.795520,-0.019775,0.337891,0.990967,-7.202148,6.958008,15.625000
2024-12-31 11:30:05.803520,0.028809,0.347534,1.000488,2.136230,2.990723,14.221191
2024-12-31 11:30:05.812520,-0.000366,0.259521,0.990601,2.136230,2.197266,9.521484
2024-12-31 11:30:05.820520,0.005127,0.118896,1.014282,4.882812,2.319336,-0.732422
2024-12-31 11:30:05.829520,0.035522,0.265137,1.008789,5.798340,1.037598,-4.028320
2024-12-31 11:30:05.837520,0.073486,0.427368,1.015503,0.610352,1.098633,-7.568359
2024-12-31 11:30:05.846520,-0.007812,0.459717,1.029785,-5.371094,3.784180,-15.991211
2024-12-31 11:30:05.854520,-0.042480,0.348877,1.032715,1.525879,4.882812,-24.902344
2024-12-31 11:30:05.862520,0.030640,0.278687,1.037964,-0.732422,0.854492,-36.499023
2024-12-31 11:30:05.871520,0.105469,0.273926,1.014526,-2.380371,-2.380371,-48.278809
2024-12-31 11:30:05.879520,-0.062012,0.202148,1.034790,-6.408691,0.000000,-52.062988
2024-12-31 11:30:05.888520,-0.055054,0.331543,0.911621,-12.023926,2.441406,-49.865723
2024-12-31 11:30:05.896520,-0.081665,0.297974,0.958618,-3.479004,2.685547,-48.828125
2024-12-31 11:30:05.905520,-0.117920,0.231812,0.931152,-2.258301,5.676270,-58.776855
2024-12-31 11:30:05.913520,0.133179,0.187500,1.012207,7.812500,-9.948730,-64.331055
2024-12-31 11:30:05.922520,-0.064941,0.103516,1.090576,-0.671387,-4.882812,-72.875977
2024-12-31 11:30:05.930520,0.079102,0.158936,1.005005,-6.164551,5.371094,-71.777344
2024-12-31 11:30:05.939520,0.037842,0.206299,1.018433,-7.934570,2.746582,-69.885254
2024-12-31 11:30:05.947520,0.105957,0.128174,1.010010,-4.760742,-0.732422,-67.626953
2024-12-31 11:30:05.956520,0.018311,0.016846,1.070801,11.596680,-0.732422,-70.739746
2024-12-31 11:30:05.964520,0.049683,0.076172,0.984009,-0.305176,-0.427246,-68.847656
2024-12-31 11:30:05.973520,0.018799,0.086426,1.110352,-4.516602,-9.094238,-73.120117
2024-12-31 11:30:05.981520,-0.179932,0.015991,1.039673,-1.586914,1.831055,-80.505371
2024-12-31 11:30:05.989520,0.041504,0.080322,1.100952,-4.516602,-5.554199,-84.594727
2024-12-31 11:30:05.998520,0.008911,0.071045,0.981812,-2.990723,1.281738,-82.763672
2024-12-31 11:30:06.006520,0.086182,0.024048,1.006592,4.577637,3.845215,-79.284668
2024-12-31 11:30:06.015520,0.037476,-0.115601,1.173828,-11.779785,-3.112793,-70.312500
2024-12-31 11:30:06.023520,-0.033203,0.096802,0.913818,0.061035,-2.624512,-70.312500
2024-12-31 11:30:06.032520,-0.097412,-0.187866,1.017822,4.638672,0.488281,-78.063965
2024-12-31 11:30:06.040520,0.023193,-0.041260,1.058105,-12.634277,0.854492,-74.829102
2024-12-31 11:30:06.049520,0.062622,-0.254028,1.129150,-13.977051,-0.305176,-73.364258
2024-12-31 11:30:06.057520,0.145142,-0.131714,1.034790,0.549316,-0.061035,-64.025879
2024-12-31 11:30:06.066520,-0.190430,-0.110352,0.995117,-0.488281,2.380371,-58.105469
2024-12-31 11:30:06.074520,-0.061646,-0.049072,0.976807,-4.699707,-2.380371,-47.058105
2024-12-31 11:30:06.083520,-0.075562,-0.120239,0.937500,-4.211426,-2.014160,-44.006348
2024-12-31 11:30:06.091520,-0.020752,-0.116211,0.901123,-8.728027,3.845215,-45.532227
2024-12-31 11:30:06.099520,0.007935,-0.182739,1.106201,-14.709473,6.530762,-46.630859
2024-12-31 11:30:06.108520,0.012817,-0.146240,0.949097,-8.728027,1.464844,-49.865723
2024-12-31 11:30:06.116520,0.060181,-0.356445,1.008667,-5.554199,0.244141,-51.086426
2024-12-31 11:30:06.125520,-0.061401,-0.347168,1.071411,-2.380371,-0.122070,-50.781250
2024-12-31 11:30:06.133520,-0.439453,-0.325195,0.964478,-4.638672,-2.075195,-39.611816
2024-12-31 11:30:06.142520,0.125732,-0.229004,1.077515,1.831055,-4.760742,-28.137207
2024-12-31 11:30:06.150520,-0.048218,-0.235352,0.993408,-2.014160,3.662109,-24.658203
2024-12-31 11:30:06.159520,-0.106323,-0.232300,0.958496,-3.601074,4.455566,-22.583008
2024-12-31 11:30:06.167520,-0.143311,-0.436890,1.001953,-1.220703,1.892090,-22.705078
2024-12-31 11:30:06.176520,-0.062988,-0.319702,1.018921,-0.122070,-2.441406,-23.864746
2024-12-31 11:30:06.184520,-0.129883,-0.407471,1.015991,-7.507324,3.601074,-15.991211
2024-12-31 11:30:06.193520,-0.014648,-0.157715,1.010864,-9.521484,6.530762,-8.117676
2024-12-31 11:30:06.201520,-0.083862,-0.180054,1.011597,-11.352539,7.080078,2.014160
2024-12-31 11:30:06.210520,-0.121582,-0.344727,0.990601,-13.854980,6.042480,13.122559
2024-12-31 11:30:06.218520,-0.118164,-0.519409,1.014648,-9.155273,1.708984,17.700195
2024-12-31 11:30:06.226520,-0.069580,-0.440063,0.993774,-11.169434,4.699707,23.132324
2024-12-31 11:30:06.235520,-0.199951,-0.360229,1.019043,-11.047363,2.502441,38.696289
2024-12-31 11:30:06.243520,-0.120361,-0.357422,1.024048,-4.089355,-2.807617,51.269531
2024-12-31 11:30:06.252520,0.006348,-0.255737,1.015381,-4.455566,1.586914,52.978516
2024-12-31 11:30:06.260520,-0.001953,-0.145508,1.134277,-1.892090,5.310059,55.114746
2024-12-31 11:30:06.269520,-0.064575,-0.270996,1.074585,-5.004883,5.249023,60.363770
2024-12-31 11:30:06.277520,-0.007812,-0.248413,0.986328,-11.535645,6.774902,62.438965
2024-12-31 11:30:06.286520,-0.080200,-0.290649,0.871582,-12.268066,-0.061035,65.490723
2024-12-31 11:30:06.294520,-0.053223,-0.214600,1.026611,-16.540527,0.732422,67.871094
2024-12-31 11:30:06.303520,-0.022217,-0.208862,1.034790,-10.375977,2.563477,67.199707
2024-12-31 11:30:06.311520,-0.094360,-0.162109,1.040039,-11.108398,4.272461,68.298340
2024-12-31 11:30:06.320520,-0.111694,-0.188110,1.017578,-9.643555,7.629395,71.228027
2024-12-31 11:30:06.328520,-0.124512,-0.089233,1.041138,-8.178711,12.573242,66.467285
2024-12-31 11:30:06.336520,-0.037109,-0.053467,0.981323,-9.399414,11.718750,64.819336
2024-12-31 11:30:06.345520,0.025513,-0.034180,0.940552,-11.047363,3.112793,65.612793
2024-12-31 11:30:06.353520,-0.000488,-0.012085,0.901611,-17.883301,0.305176,65.368652
2024-12-31 11:30:06.362520,0.040894,0.046753,1.071533,-13.916016,6.896973,64.270020
2024-12-31 11:30:06.370520,-0.089478,0.021851,1.113647,-10.925293,10.131836,62.744141
2024-12-31 11:30:06.379520,-0.063477,0.024780,0.874390,-5.920410,3.173828,67.993164
2024-12-31 11:30:06.387520,0.028931,0.116699,0.998779,-7.568359,5.310059,67.443848
2024-12-31 11:30:06.396520,0.005371,0.103027,1.003784,-6.530762,-1.342773,64.086914
2024-12-31 11:30:06.404520,-0.024292,0.089111,0.957275,-8.178711,0.488281,63.049316
2024-12-31 11:30:06.413520,-0.002319,0.103638,0.996338,-1.464844,1.831055,61.706543
2024-12-31 11:30:06.421520,-0.030884,0.167236,0.997559,7.629395,-7.080078,62.683105
2024-12-31 11:30:06.430520,-0.053589,0.124512,1.063599,10.192871,-2.075195,59.936523
2024-12-31 11:30:06.438520,-0.080688,0.031250,0.978271,6.835938,-1.708984,54.260254
2024-12-31 11:30:06.447520,-0.069336,0.074219,0.999634,7.995605,0.000000,56.213379
2024-12-31 11:30:06.455520,-0.021729,0.112549,1.088867,16.967773,-1.708984,55.725098
2024-12-31 11:30:06.463520,0.024902,0.088867,0.797363,21.850586,-1.403809,51.879883
2024-12-31 11:30:06.472520,0.013306,0.208618,1.082153,22.705078,0.793457,47.302246
2024-12-31 11:30:06.480520,0.082153,0.303955,1.108887,22.949219,2.441406,44.311523
2024-12-31 11:30:06.489520,-0.019531,0.141113,0.928711,19.653320,4.394531,38.940430
2024-12-31 11:30:06.497520,-0.007080,0.298706,0.932251,6.164551,-0.854492,43.518066
2024-12-31 11:30:06.506520,0.063965,0.192993,0.942017,8.178711,-4.821777,40.344238
2024-12-31 11:30:06.514520,0.059692,0.267090,1.094238,7.324219,-1.831055,29.968262
2024-12-31 11:30:06.523520,0.047485,0.379517,1.067871,-2.990723,0.915527,27.770996
2024-12-31 11:30:06.531520,-0.080200,0.199341,1.002808,-11.901855,1.281738,24.414062
2024-12-31 11:30:06.540520,-0.004028,0.292480,1.017822,-1.281738,-0.854492,12.634277
2024-12-31 11:30:06.548520,0.011108,0.255127,1.021729,5.371094,1.892090,7.751465
2024-12-31 11:30:06.557520,0.015259,0.282593,0.992432,-4.577637,2.014160,5.187988
2024-12-31 11:30:06.565520,0.014404,0.291992,1.005371,-6.408691,1.220703,1.220703
2024-12-31 11:30:06.574520,0.011719,0.274048,1.015381,0.000000,-1.342773,-4.760742
2024-12-31 11:30:06.582520,0.003296,0.039307,1.007935,-0.854492,-0.183105,-10.070801
2024-12-31 11:30:06.590520,0.010254,0.067139,1.005615,0.122070,-0.366211,-4.699707
2024-12-31 11:30:06.599520,0.028076,0.143066,1.018555,0.976562,-1.281738,-14.587402
2024-12-31 11:30:06.607520,0.102051,0.429443,1.007568,1.770020,-0.915527,-40.832520
2024-12-31 11:30:06.616520,-0.014771,0.566040,1.029663,-2.563477,-2.380371,-69.152832
2024-12-31 11:30:06.624520,0.005127,0.444946,0.961426,-3.601074,-1.770020,-46.264648
2024-12-31 11:30:06.633520,0.037842,0.487549,0.961426,-7.690430,1.342773,-43.395996
2024-12-31 11:30:06.641520,-0.062378,0.333984,1.093872,-9.765625,-1.892090,-54.260254
2024-12-31 11:30:06.650520,0.053955,0.333374,1.056641,-4.516602,2.075195,-59.509277
2024-12-31 11:30:06.658520,-0.201538,0.219604,1.052368,-1.281738,-0.183105,-64.208984
2024-12-31 11:30:06.667520,-0.009399,0.248535,0.981201,-1.220703,1.953125,-60.119629
2024-12-31 11:30:06.675520,-0.044067,0.211914,0.933228,-9.338379,2.380371,-61.767578
2024-12-31 11:30:06.684520,0.029785,0.178223,1.007324,-6.530762,-0.915527,-55.786133
2024-12-31 11:30:06.692520,-0.034546,0.037476,1.167480,3.479004,-4.516602,-54.931641
2024-12-31 11:30:06.700520,-0.059814,0.113647,1.078857,5.004883,-5.065918,-47.912598
2024-12-31 11:30:06.709520,0.035645,0.110840,1.044800,-5.187988,-0.427246,-40.405273
2024-12-31 11:30:06.717520,-0.050171,0.212036,0.987305,-4.821777,4.211426,-58.959961
2024-12-31 11:30:06.726520,0.099609,0.141113,1.021851,4.333496,6.591797,-56.701660
2024-12-31 11:30:06.734520,-0.122803,0.087646,1.025024,-2.319336,0.427246,-52.124023
2024-12-31 11:30:06.743520,-0.067627,0.030762,1.129639,-5.615234,-3.723145,-48.034668
2024-12-31 11:30:06.751520,-0.133667,-0.023560,0.994263,-1.892090,-0.915527,-50.537109
2024-12-31 11:30:06.760520,-0.043579,0.018555,0.996338,-9.887695,-1.342773,-60.729980
2024-12-31 11:30:06.768520,-0.033813,0.014526,1.047974,-6.164551,-0.976562,-69.580078
2024-12-31 11:30:06.777520,-0.006592,-0.149170,0.970703,6.652832,2.990723,-65.979004
2024-12-31 11:30:06.785520,0.047485,0.097778,1.061646,-10.375977,4.333496,-59.814453
2024-12-31 11:30:06.794520,-0.025879,-0.163940,0.856323,-3.845215,-0.305176,-61.950684
2024-12-31 11:30:06.802520,-0.215332,0.026123,1.024658,-1.831055,-5.493164,-61.767578
2024-12-31 11:30:06.811520,0.029663,-0.071289,1.019165,-0.427246,-3.417969,-52.978516
2024-12-31 11:30:06.819520,-0.157227,-0.140503,1.086670,-10.070801,7.080078,-39.916992
2024-12-31 11:30:06.827520,0.042847,-0.078857,0.905640,2.075195,1.647949,-36.132812
2024-12-31 11:30:06.836520,0.121948,-0.003174,1.007812,-1.525879,0.793457,-32.958984
2024-12-31 11:30:06.844520,-0.095337,-0.287964,1.145874,-3.540039,0.000000,-37.475586
2024-12-31 11:30:06.853520,0.084839,-0.196533,1.043335,-8.422852,-0.488281,-37.963867
2024-12-31 11:30:06.861520,0.070190,-0.165649,0.941406,-6.774902,2.685547,-41.198730
2024-12-31 11:30:06.870520,-0.245117,-0.185425,0.939209,-9.826660,0.244141,-48.583984
2024-12-31 11:30:06.878520,-0.087646,-0.257935,1.027954,-3.540039,-0.061035,-46.936035
2024-12-31 11:30:06.887520,0.017822,-0.069824,0.897339,-2.380371,6.713867,-39.855957
2024-12-31 11:30:06.895520,-0.003418,-0.118164,0.944214,0.732422,3.845215,-41.687012
2024-12-31 11:30:06.904520,-0.079834,-0.322632,1.014282,-0.244141,1.647949,-46.691895
2024-12-31 11:30:06.912520,-0.157837,-0.418579,1.039551,2.624512,-1.892090,-52.612305
2024-12-31 11:30:06.921520,-0.044312,-0.535767,0.980591,-3.479004,1.281738,-53.527832
2024-12-31 11:30:06.929520,0.008423,-0.232056,0.994873,-3.601074,2.929688,-52.612305
2024-12-31 11:30:06.938520,-0.116821,-0.517456,0.995483,-2.624512,2.868652,-43.884277
2024-12-31 11:30:06.946520,-0.096436,-0.266479,1.012329,-8.789062,5.493164,-28.442383
2024-12-31 11:30:06.954520,-0.073486,-0.402588,1.005127,-6.103516,4.211426,-16.601562
2024-12-31 11:30:06.963520,-0.003662,-0.080322,1.001709,-4.577637,4.211426,-5.249023
2024-12-31 11:30:06.971520,-0.025757,-0.143188,1.019165,-7.263184,3.784180,0.488281
2024-12-31 11:30:06.980520,-0.191406,-0.441284,1.028931,-9.033203,5.615234,8.483887
2024-12-31 11:30:06.988520,0.154785,-0.139160,0.968140,-7.812500,6.958008,18.188477
2024-12-31 11:30:06.997520,-0.119507,-0.306763,0.986084,0.305176,-2.014160,14.648438
2024-12-31 11:30:07.005520,-0.237549,-0.553833,1.042725,-0.122070,-6.958008,23.620605
2024-12-31 11:30:07.014520,-0.126221,-0.445190,0.990845,-5.676270,1.770020,43.701172
2024-12-31 11:30:07.022520,-0.227295,-0.418701,0.910645,0.000000,0.854492,64.636230
2024-12-31 11:30:07.031520,-0.011230,-0.256714,1.003418,-0.183105,0.793457,78.613281
2024-12-31 11:30:07.039520,0.015747,-0.219360,0.959961,-7.629395,2.746582,84.228516
2024-12-31 11:30:07.048520,-0.263184,-0.210571,1.090332,-1.525879,-6.286621,86.669922
2024-12-31 11:30:07.056520,-0.208984,-0.174194,1.177002,-1.220703,-12.207031,83.740234
2024-12-31 11:30:07.064520,-0.104370,-0.188110,1.103638,-1.464844,0.915527,70.312500
2024-12-31 11:30:07.073520,0.143677,0.007324,1.155640,0.488281,6.164551,67.321777
2024-12-31 11:30:07.081520,-0.098877,-0.134277,0.947998,-1.098633,2.807617,67.443848
2024-12-31 11:30:07.090520,-0.039673,-0.127319,1.023071,0.671387,-1.770020,67.687988
2024-12-31 11:30:07.098520,0.012817,-0.149414,1.052124,-4.028320,2.197266,66.711426
2024-12-31 11:30:07.107520,0.011353,-0.083740,0.969727,-11.779785,4.516602,64.697266
2024-12-31 11:30:07.115520,-0.106079,-0.100220,0.932129,-10.131836,2.502441,60.424805
2024-12-31 11:30:07.124520,-0.038940,-0.024658,1.135376,7.568359,-6.286621,59.265137
2024-12-31 11:30:07.132520,-0.104858,-0.070312,0.946533,-0.671387,0.915527,56.518555
2024-12-31 11:30:07.141520,0.048218,0.050537,1.062988,-12.878418,1.098633,59.509277
2024-12-31 11:30:07.149520,0.015015,0.099365,0.966309,-7.507324,5.493164,63.781738
2024-12-31 11:30:07.158520,0.025513,0.004761,1.004517,2.807617,2.502441,69.274902
2024-12-31 11:30:07.166520,-0.048706,0.066284,1.048584,-6.469727,5.371094,74.645996
2024-12-31 11:30:07.175520,0.125366,0.096680,0.905518,-3.723145,-0.366211,70.556641
2024-12-31 11:30:07.183520,-0.057373,0.030151,0.864990,-4.394531,5.004883,60.119629
2024-12-31 11:30:07.191520,0.031250,0.067017,0.997314,7.263184,2.624512,58.776855
2024-12-31 11:30:07.200520,-0.029785,0.150635,1.120483,6.103516,4.638672,53.039551
2024-12-31 11:30:07.208520,-0.214233,-0.052124,1.005493,2.929688,9.521484,53.955078
2024-12-31 11:30:07.217520,-0.069458,0.101318,1.043823,-1.098633,-0.122070,65.856934
2024-12-31 11:30:07.225520,0.052979,0.223022,1.126221,-7.934570,-1.831055,70.617676
2024-12-31 11:30:07.234520,0.000977,0.189087,1.084351,-7.568359,1.403809,66.528320
2024-12-31 11:30:07.242520,0.078369,0.202515,1.073730,6.286621,2.685547,59.143066
2024-12-31 11:30:07.251520,-0.012695,0.251709,1.051636,-2.258301,4.943848,54.687500
2024-12-31 11:30:07.259520,0.015381,0.165039,1.026367,-7.751465,2.685547,48.645020
2024-12-31 11:30:07.268520,-0.104004,0.281860,0.992920,-8.422852,5.737305,45.043945
2024-12-31 11:30:07.276520,0.044312,0.269287,1.033447,-5.004883,5.249023,40.039062
2024-12-31 11:30:07.285520,-0.047485,0.172241,0.994141,-5.065918,9.704590,32.958984
2024-12-31 11:30:07.293520,0.010498,0.279419,1.024170,-10.192871,-1.708984,33.325195
2024-12-31 11:30:07.301520,0.004150,0.252563,1.012085,-6.408691,0.610352,24.353027
2024-12-31 11:30:07.310520,-0.016724,0.248291,1.032227,1.220703,-1.220703,12.207031
2024-12-31 11:30:07.318520,0.052368,0.309448,1.000854,-2.258301,0.183105,7.690430
2024-12-31 11:30:07.327520,0.000610,0.249023,1.010620,-5.920410,2.563477,1.770020
2024-12-31 11:30:07.335520,-0.038086,0.220703,0.996094,-7.751465,1.708984,1.647949
2024-12-31 11:30:07.344520,0.045044,0.148560,1.009155,0.305176,0.549316,-1.037598
2024-12-31 11:30:07.352520,-0.008667,0.213379,1.009155,2.441406,0.976562,-7.690430
2024-12-31 11:30:07.361520,0.037354,0.324341,0.999390,4.699707,0.305176,-12.268066
2024-12-31 11:30:07.369520,0.061279,0.378052,1.035767,-1.159668,0.549316,-20.568848
2024-12-31 11:30:07.378520,0.007690,0.323730,1.023315,-5.493164,5.798340,-22.583008
2024-12-31 11:30:07.386520,0.001831,0.266968,0.974854,-5.371094,5.249023,-32.958984
2024-12-31 11:30:07.395520,0.046631,0.131592,1.017578,0.061035,2.990723,-42.480469
2024-12-31 11:30:07.403520,-0.112305,0.241455,0.914673,-4.028320,4.943848,-42.114258
2024-12-31 11:30:07.412520,-0.005981,0.321655,1.014526,3.356934,-5.432129,-49.499512
2024-12-31 11:30:07.420520,-0.046753,-0.020386,0.994019,0.183105,-6.774902,-59.326172
2024-12-31 11:30:07.428520,-0.040527,0.253052,1.073242,-5.554199,-7.507324,-61.218262
2024-12-31 11:30:07.437520,-0.089844,0.193604,0.978149,-4.150391,3.479004,-54.687500
2024-12-31 11:30:07.445520,-0.151123,0.221924,0.971924,-1.464844,1.037598,-56.579590
2024-12-31 11:30:07.454520,0.084595,0.253418,0.980469,-2.258301,-1.892090,-63.293457
2024-12-31 11:30:07.462520,0.114990,0.187500,0.952759,1.220703,-0.122070,-63.476562
2024-12-31 11:30:07.471520,0.044800,0.113770,1.003052,4.455566,3.601074,-61.767578
2024-12-31 11:30:07.479520,0.029053,0.112793,0.995728,-1.098633,2.685547,-55.725098
2024-12-31 11:30:07.488520,-0.149170,0.160522,1.162598,-5.615234,-7.751465,-58.837891
2024-12-31 11:30:07.496520,-0.097290,0.149536,1.004639,-5.737305,-0.366211,-65.368652
2024-12-31 11:30:07.505520,0.004395,0.055542,1.073486,0.183105,6.652832,-68.054199
2024-12-31 11:30:07.513520,-0.082886,0.033813,0.890259,-2.136230,-1.281738,-66.223145
2024-12-31 11:30:07.522520,-0.161255,-0.077881,1.005371,-4.516602,2.563477,-68.237305
2024-12-31 11:30:07.530520,-0.036255,0.028198,0.888550,-4.577637,5.981445,-65.795898
2024-12-31 11:30:07.539520,-0.057129,0.051880,1.210938,-12.573242,-1.342773,-62.133789
2024-12-31 11:30:07.547520,-0.025879,-0.248413,0.978516,-3.295898,-4.760742,-62.438965
2024-12-31 11:30:07.555520,-0.192139,-0.140381,1.003052,-0.610352,-0.915527,-66.284180
2024-12-31 11:30:07.564520,0.013916,-0.052734,0.964233,0.366211,-1.098633,-63.842773
2024-12-31 11:30:07.572520,-0.058838,-0.030884,1.003784,-11.962891,1.708984,-58.471680
2024-12-31 11:30:07.581520,-0.193237,-0.135986,0.928101,-8.300781,4.394531,-55.480957
2024-12-31 11:30:07.589520,0.127441,-0.079712,0.895630,4.455566,-2.380371,-59.265137
2024-12-31 11:30:07.598520,0.012695,-0.106323,1.098022,-4.821777,3.112793,-58.593750
2024-12-31 11:30:07.606520,-0.020630,-0.113037,0.988525,-3.784180,-1.647949,-64.758301
2024-12-31 11:30:07.615520,-0.077393,-0.144653,1.036255,-10.681152,-0.366211,-65.246582
2024-12-31 11:30:07.623520,0.001099,-0.212280,1.146484,-4.760742,-1.831055,-64.147949
2024-12-31 11:30:07.632520,0.126343,-0.189697,1.052856,-2.014160,4.516602,-54.809570
2024-12-31 11:30:07.640520,0.141113,-0.231812,1.041504,-6.652832,1.464844,-48.828125
2024-12-31 11:30:07.649520,-0.043335,-0.378052,1.088745,-7.995605,-4.089355,-44.738770
2024-12-31 11:30:07.657520,-0.119141,-0.142578,0.944580,-8.300781,0.000000,-40.954590
2024-12-31 11:30:07.665520,-0.022461,-0.225586,1.011353,1.525879,2.380371,-37.231445
2024-12-31 11:30:07.674520,-0.022217,-0.171143,1.030640,0.061035,3.845215,-38.085938
2024-12-31 11:30:07.682520,-0.180664,-0.206909,0.984741,0.000000,1.525879,-37.536621
2024-12-31 11:30:07.691520,0.104370,-0.305664,1.078735,-0.976562,1.708984,-39.001465
2024-12-31 11:30:07.699520,-0.102539,-0.218872,0.970825,-8.178711,4.333496,-40.161133
2024-12-31 11:30:07.708520,-0.139038,-0.172363,0.949829,-3.417969,4.150391,-38.391113
2024-12-31 11:30:07.716520,-0.034424,-0.243408,1.006348,-7.324219,5.676270,-32.348633
2024-12-31 11:30:07.725520,-0.009033,-0.274414,1.003418,-2.075195,1.159668,-29.724121
2024-12-31 11:30:07.733520,-0.043945,-0.329224,1.018677,-4.821777,4.760742,-22.644043
2024-12-31 11:30:07.742520,0.004517,-0.242798,1.025269,-3.723145,4.516602,-16.723633
2024-12-31 11:30:07.750520,-0.092407,-0.140991,1.011841,-6.896973,9.155273,-4.638672
2024-12-31 11:30:07.759520,-0.061401,-0.278687,1.024414,-6.896973,9.826660,7.629395
2024-12-31 11:30:07.767520,-0.060669,-0.408569,0.984375,-2.868652,5.065918,15.380859
2024-12-31 11:30:07.776520,-0.025635,-0.364258,1.005249,-4.882812,-2.990723,24.841309
2024-12-31 11:30:07.784520,-0.066284,-0.263672,1.071411,-9.155273,-5.065918,32.958984
2024-12-31 11:30:07.792520,-0.004028,-0.352173,1.022339,2.685547,-9.094238,43.395996
2024-12-31 11:30:07.801520,-0.120728,-0.258911,0.922974,-2.929688,-4.577637,51.269531
2024-12-31 11:30:07.809520,-0.006714,-0.313232,0.997681,-1.281738,-0.610352,56.152344
2024-12-31 11:30:07.818520,-0.132202,-0.236084,0.994385,-3.417969,1.464844,64.453125
2024-12-31 11:30:07.826520,-0.062622,-0.178833,1.021240,-2.014160,-2.014160,68.786621
2024-12-31 11:30:07.835520,-0.007324,-0.268433,1.049072,-8.544922,-4.699707,71.533203
2024-12-31 11:30:07.843520,-0.078613,-0.165283,1.065796,-5.065918,-4.455566,72.753906
2024-12-31 11:30:07.852520,0.023926,-0.137939,0.943481,1.220703,0.427246,81.787109
2024-12-31 11:30:07.860520,-0.103516,-0.168945,0.944214,3.479004,5.859375,91.491699
2024-12-31 11:30:07.869520,-0.119873,-0.100830,0.952881,-0.366211,7.873535,100.219727
2024-12-31 11:30:07.877520,-0.010742,-0.205688,0.945923,2.746582,4.455566,102.355957
2024-12-31 11:30:07.886520,-0.210083,-0.121338,1.098633,-6.347656,7.263184,96.679688
2024-12-31 11:30:07.894520,0.008667,-0.157104,1.040039,-5.676270,11.657715,91.613770
2024-12-31 11:30:07.903520,-0.023438,0.034546,1.010254,-0.122070,5.126953,88.989258
2024-12-31 11:30:07.911520,-0.076294,-0.052368,1.000854,6.286621,-6.103516,85.144043
2024-12-31 11:30:07.919520,-0.040405,0.099121,1.066650,5.798340,0.488281,80.505371
2024-12-31 11:30:07.928520,-0.116699,-0.007202,0.861938,-9.521484,4.272461,76.232910
2024-12-31 11:30:07.936520,-0.090698,0.018555,1.091553,-2.258301,-0.610352,64.880371
2024-12-31 11:30:07.945520,-0.114990,-0.010010,1.059204,-0.122070,1.586914,55.847168
2024-12-31 11:30:07.953520,0.070435,0.075195,0.889893,2.441406,1.708984,53.588867
2024-12-31 11:30:07.962520,-0.121704,-0.002197,1.081177,-6.164551,-1.770020,56.152344
2024-12-31 11:30:07.970520,-0.120605,-0.001709,0.988770,1.098633,-3.662109,54.321289
2024-12-31 11:30:07.979520,-0.085083,0.130249,0.976440,-4.150391,0.183105,50.415039
2024-12-31 11:30:07.987520,0.132202,-0.000122,1.082886,2.990723,-4.699707,46.936035
2024-12-31 11:30:07.996520,-0.096680,0.040283,1.013184,0.854492,9.399414,41.931152
2024-12-31 11:30:08.004520,0.036621,0.125854,0.975708,-5.432129,0.610352,46.569824
2024-12-31 11:30:08.013520,-0.014282,0.059570,1.000610,-6.652832,-5.126953,45.471191
2024-12-31 11:30:08.021520,-0.033813,0.187988,0.997925,-8.605957,-7.690430,43.762207
2024-12-31 11:30:08.029520,-0.017090,0.157959,0.921997,-3.540039,0.549316,38.696289
2024-12-31 11:30:08.038520,-0.048096,0.261475,1.037476,-3.479004,5.615234,32.470703
2024-12-31 11:30:08.046520,0.001465,0.254028,1.066528,-7.629395,2.319336,31.982422
2024-12-31 11:30:08.055520,0.035034,0.291748,1.050415,-8.850098,0.244141,30.700684
2024-12-31 11:30:08.063520,-0.051514,0.220093,1.012817,-3.051758,7.568359,24.414062
2024-12-31 11:30:08.072520,-0.072144,0.282837,0.997314,-3.417969,4.943848,26.794434
2024-12-31 11:30:08.080520,-0.003174,0.396484,1.045776,-2.929688,0.793457,27.832031
2024-12-31 11:30:08.089520,-0.002808,0.317749,1.041626,-5.920410,-1.281738,28.625488
2024-12-31 11:30:08.097520,0.040283,0.305786,1.021362,-0.366211,-1.037598,22.705078
2024-12-31 11:30:08.106520,-0.022217,0.319092,1.007202,-1.464844,-0.061035,15.258789
2024-12-31 11:30:08.114520,0.017090,0.377441,1.013184,-2.685547,1.159668,10.925293
2024-12-31 11:30:08.123520,0.009888,0.109009,1.003906,-3.173828,1.159668,6.713867
2024-12-31 11:30:08.131520,0.001709,0.074707,1.006836,0.366211,0.915527,-1.525879
2024-12-31 11:30:08.140520,0.010498,0.222900,1.012817,1.159668,0.915527,-3.784180
2024-12-31 11:30:08.148520,-0.039307,0.257324,1.012207,-0.610352,3.601074,-9.399414
2024-12-31 11:30:08.156520,0.072510,0.374268,1.019653,-3.479004,1.586914,-20.324707
2024-12-31 11:30:08.165520,-0.002441,0.320435,1.044922,-3.845215,3.845215,-27.038574
2024-12-31 11:30:08.173520,-0.014648,0.291870,1.004272,-1.770020,3.662109,-34.301758
2024-12-31 11:30:08.182520,0.015625,0.184204,0.963623,0.549316,5.676270,-44.677734
2024-12-31 11:30:08.190520,0.057251,0.249023,1.006104,-6.774902,0.244141,-48.706055
2024-12-31 11:30:08.199520,-0.186401,0.223633,0.999390,-4.455566,-2.563477,-50.048828
2024-12-31 11:30:08.207520,0.132568,0.145874,1.027344,1.403809,-2.807617,-52.490234
2024-12-31 11:30:08.216520,-0.022583,0.238770,0.981567,1.403809,0.732422,-58.776855
2024-12-31 11:30:08.224520,-0.063477,0.138916,1.112305,0.732422,2.319336,-67.382812
2024-12-31 11:30:08.233520,0.061768,0.188354,1.075562,-0.305176,-3.295898,-69.152832
2024-12-31 11:30:08.241520,0.060791,0.286865,1.007446,-4.394531,-1.647949,-70.129395
2024-12-31 11:30:08.250520,-0.234375,0.142456,1.004639,1.281738,10.620117,-74.584961
2024-12-31 11:30:08.258520,0.038086,0.204102,0.961182,1.037598,4.455566,-74.768066
2024-12-31 11:30:08.266520,0.167236,0.010498,1.017578,0.061035,0.244141,-75.073242
2024-12-31 11:30:08.275520,-0.020508,0.172729,1.064331,-6.347656,-5.065918,-73.242188
2024-12-31 11:30:08.283520,-0.310425,0.152954,1.042847,-3.356934,0.000000,-82.153320
2024-12-31 11:30:08.292520,0.027222,0.105835,0.946655,3.601074,2.136230,-87.280273
2024-12-31 11:30:08.300520,-0.009033,0.244995,0.864258,1.647949,-0.183105,-90.576172
2024-12-31 11:30:08.309520,-0.124756,0.055542,1.047852,-8.850098,5.920410,-88.989258
2024-12-31 11:30:08.317520,0.018433,-0.097778,0.959473,-2.380371,0.061035,-87.768555
2024-12-31 11:30:08.326520,0.054565,-0.171753,1.187134,-9.094238,-8.056641,-86.486816
2024-12-31 11:30:08.334520,-0.026367,0.019531,1.002563,-3.967285,1.220703,-90.270996
2024-12-31 11:30:08.343520,-0.070435,0.128540,0.981567,-1.953125,0.976562,-85.144043
2024-12-31 11:30:08.351520,0.069580,0.051392,0.969604,-3.295898,0.122070,-82.580566
2024-12-31 11:30:08.360520,0.004517,-0.110596,1.057739,-14.465332,3.540039,-78.369141
2024-12-31 11:30:08.368520,0.006348,-0.048462,1.078613,-2.990723,1.037598,-72.570801
2024-12-31 11:30:08.377520,-0.172241,-0.134155,0.978271,-3.601074,-2.563477,-70.983887
2024-12-31 11:30:08.385520,-0.107056,-0.015991,0.943726,-7.507324,-3.662109,-71.533203
2024-12-31 11:30:08.393520,-0.028076,-0.110962,1.088623,-5.493164,1.159668,-69.335938
2024-12-31 11:30:08.402520,0.055298,-0.203003,0.987671,-6.042480,1.403809,-65.124512
2024-12-31 11:30:08.410520,-0.003784,-0.392700,1.049438,-1.892090,2.014160,-65.124512
2024-12-31 11:30:08.419520,-0.095337,-0.300781,1.031372,-7.202148,-1.098633,-62.377930
2024-12-31 11:30:08.427520,-0.164917,-0.164551,0.914185,-6.530762,-0.061035,-57.922363
2024-12-31 11:30:08.436520,0.015869,-0.341064,1.061890,0.122070,3.173828,-51.818848
2024-12-31 11:30:08.444520,-0.226196,-0.235840,1.027588,-0.732422,2.563477,-44.189453
2024-12-31 11:30:08.453520,0.029907,-0.481567,1.020874,-4.089355,-1.037598,-39.123535
2024-12-31 11:30:08.461520,-0.081543,-0.099487,1.020264,-4.577637,0.793457,-38.818359
2024-12-31 11:30:08.470520,-0.051758,-0.152954,1.016479,-3.479004,4.516602,-29.418945
2024-12-31 11:30:08.478520,-0.041626,-0.285889,1.037109,-11.535645,6.225586,-22.583008
2024-12-31 11:30:08.487520,-0.150757,-0.481323,1.020142,-0.915527,0.976562,-16.113281
2024-12-31 11:30:08.495520,-0.027466,-0.329590,1.014038,-1.831055,0.488281,-15.258789
2024-12-31 11:30:08.503520,-0.039185,-0.271973,1.009888,-3.784180,2.990723,-2.929688
2024-12-31 11:30:08.512520,-0.029053,-0.138428,1.006470,-5.126953,6.530762,2.197266
2024-12-31 11:30:08.520520,-0.068481,-0.208862,1.009399,-6.835938,7.019043,10.375977
2024-12-31 11:30:08.529520,-0.111328,-0.347778,0.985596,-7.080078,6.835938,24.108887
2024-12-31 11:30:08.537520,0.010864,-0.254883,1.014282,-4.760742,6.469727,32.409668
2024-12-31 11:30:08.546520,-0.068237,-0.319946,1.025391,-4.943848,0.793457,39.306641
2024-12-31 11:30:08.554520,-0.041870,-0.321289,0.999023,-12.023926,1.525879,38.085938
2024-12-31 11:30:08.563520,-0.113159,-0.359375,1.018188,0.122070,-0.915527,45.471191
2024-12-31 11:30:08.571520,-0.143311,-0.139526,1.048462,-8.850098,-1.342773,57.434082
2024-12-31 11:30:08.580520,0.117798,-0.186279,1.040527,2.441406,-1.831055,61.706543
2024-12-31 11:30:08.588520,-0.086914,-0.153198,1.128662,-1.708984,-1.953125,67.077637
2024-12-31 11:30:08.597520,-0.046753,-0.324463,0.972412,-0.854492,0.122070,71.838379
2024-12-31 11:30:08.605520,-0.005615,-0.120361,0.893311,-4.272461,-3.295898,75.317383
2024-12-31 11:30:08.614520,0.110107,-0.016479,0.987061,0.183105,-5.371094,75.683594
2024-12-31 11:30:08.622520,-0.075317,-0.064331,1.057495,-0.366211,-0.122070,73.120117
2024-12-31 11:30:08.630520,-0.020142,-0.154663,1.011963,0.305176,1.159668,72.143555
2024-12-31 11:30:08.639520,-0.024414,-0.134766,1.016357,-7.568359,0.610352,78.430176
2024-12-31 11:30:08.647520,-0.040161,-0.165283,1.143677,1.159668,-1.708984,79.956055
2024-12-31 11:30:08.656520,-0.026611,-0.107056,1.138916,-1.770020,4.333496,77.453613
2024-12-31 11:30:08.664520,-0.047119,-0.166748,0.827148,-3.234863,9.399414,72.448730
2024-12-31 11:30:08.673520,-0.065063,-0.140259,1.033447,-6.835938,3.906250,75.073242
2024-12-31 11:30:08.681520,0.111694,-0.010254,1.007202,-8.422852,5.004883,74.462891
2024-12-31 11:30:08.690520,-0.030762,-0.129272,1.072876,6.835938,-1.403809,73.547363
2024-12-31 11:30:08.698520,-0.084229,-0.175781,1.003174,-0.854492,4.394531,70.861816
2024-12-31 11:30:08.707520,0.025024,-0.065796,1.024414,-5.798340,2.624512,71.044922
2024-12-31 11:30:08.715520,0.050293,0.049316,0.965210,-5.310059,-1.892090,69.396973
2024-12-31 11:30:08.724520,-0.039917,-0.027222,1.038330,2.929688,6.286621,64.270020
2024-12-31 11:30:08.732520,0.003052,0.033936,1.101196,-3.173828,-4.699707,70.983887
2024-12-31 11:30:08.741520,0.036377,-0.003540,0.860229,-2.929688,-3.662109,72.387695
2024-12-31 11:30:08.749520,-0.086914,0.008911,0.976685,2.014160,1.159668,65.917969
2024-12-31 11:30:08.757520,0.044312,0.110474,1.215454,-1.159668,-5.065918,63.354492
2024-12-31 11:30:08.766520,-0.068481,0.061523,0.932007,0.976562,3.356934,57.189941
2024-12-31 11:30:08.774520,-0.018799,0.050659,1.025269,-1.953125,6.408691,61.462402
2024-12-31 11:30:08.783520,-0.078247,0.063599,0.962036,-11.108398,0.122070,69.824219
2024-12-31 11:30:08.791520,-0.065674,0.166748,1.092529,-12.512207,-3.234863,68.786621
2024-12-31 11:30:08.800520,-0.002808,0.088013,1.009033,0.488281,-1.098633,59.631348
2024-12-31 11:30:08.808520,0.022949,0.167480,0.985474,-0.610352,7.141113,52.612305
2024-12-31 11:30:08.817520,-0.090088,0.242798,1.100586,-3.540039,-3.662109,50.476074
2024-12-31 11:30:08.825520,-0.019653,0.181274,0.993774,-6.164551,1.892090,46.203613
2024-12-31 11:30:08.834520,0.049438,0.286621,1.097778,-5.615234,9.216309,36.315918
2024-12-31 11:30:08.842520,-0.007690,0.191650,0.876587,-1.403809,4.028320,32.043457
2024-12-31 11:30:08.851520,-0.114380,0.279907,0.977051,-6.469727,-0.427246,32.409668
2024-12-31 11:30:08.859520,0.006226,0.324097,1.057373,-1.403809,-6.103516,29.357910
2024-12-31 11:30:08.867520,-0.005249,0.270996,0.975098,4.638672,-4.638672,23.742676
2024-12-31 11:30:08.876520,0.058594,0.310669,1.003174,-3.540039,2.746582,18.310547
2024-12-31 11:30:08.884520,0.002808,0.316162,0.999268,-7.995605,2.685547,15.380859
2024-12-31 11:30:08.893520,-0.000244,0.341553,1.004395,-9.399414,0.732422,15.380859
2024-12-31 11:30:08.901520,0.030762,0.168213,1.002319,-2.197266,1.037598,7.019043
2024-12-31 11:30:08.910520,-0.023926,0.222534,1.009644,1.037598,0.671387,0.366211
2024-12-31 11:30:08.918520,-0.003174,0.435303,1.008423,0.610352,0.671387,-2.380371
2024-12-31 11:30:08.927520,0.099976,0.426758,1.025146,5.187988,2.563477,-13.122559
2024-12-31 11:30:08.935520,0.003540,0.430176,0.996094,2.563477,0.183105,-28.930664
2024-12-31 11:30:08.944520,-0.013306,0.359375,1.072998,-0.549316,0.854492,-39.001465
2024-12-31 11:30:08.952520,0.080688,0.378052,0.920532,-5.493164,6.530762,-44.494629
2024-12-31 11:30:08.961520,0.065796,0.148315,1.003418,-5.981445,10.131836,-53.100586
2024-12-31 11:30:08.969520,0.102173,0.176880,1.000732,-7.141113,2.624512,-58.593750
2024-12-31 11:30:08.978520,-0.153320,0.151978,1.017700,-2.136230,-4.943848,-62.255859
2024-12-31 11:30:08.986520,0.090454,0.156250,0.947876,1.342773,-1.708984,-57.678223
2024-12-31 11:30:08.994520,-0.033813,0.115112,1.026978,-1.708984,2.136230,-59.753418
2024-12-31 11:30:09.003520,0.112915,-0.037476,1.041992,-5.798340,0.427246,-67.077637
2024-12-31 11:30:09.011520,0.016968,0.066284,1.074707,-6.713867,-0.122070,-70.556641
2024-12-31 11:30:09.020520,-0.067139,-0.019043,1.057129,5.432129,5.126953,-68.542480
2024-12-31 11:30:09.028520,-0.095093,0.143066,0.933716,3.173828,4.882812,-65.307617
2024-12-31 11:30:09.037520,0.071045,-0.012817,1.004639,4.150391,-2.319336,-61.584473
2024-12-31 11:30:09.045520,-0.160400,-0.008423,1.178955,-7.446289,-4.760742,-67.260742
2024-12-31 11:30:09.054520,0.033325,0.094971,1.001953,-3.417969,7.690430,-72.326660
2024-12-31 11:30:09.062520,-0.043091,0.191284,0.919189,-0.549316,10.314941,-81.481934
2024-12-31 11:30:09.071520,-0.063354,0.151611,1.095093,-8.300781,4.638672,-85.388184
2024-12-31 11:30:09.079520,-0.108521,0.040649,0.979126,-2.807617,-2.136230,-93.444824
2024-12-31 11:30:09.088520,-0.076050,0.067505,0.997681,-10.681152,-2.868652,-93.933105
2024-12-31 11:30:09.096520,0.079468,-0.052490,1.036865,-5.004883,-0.915527,-93.750000
2024-12-31 11:30:09.104520,-0.076660,-0.103516,1.018433,-0.122070,2.685547,-87.707520
2024-12-31 11:30:09.113520,-0.016724,-0.120728,0.889526,-3.967285,5.065918,-84.777832
2024-12-31 11:30:09.121520,-0.251953,0.031494,0.998901,-15.686035,-0.854492,-78.247070
2024-12-31 11:30:09.130520,-0.028076,0.034912,0.949219,-9.765625,3.234863,-75.317383
2024-12-31 11:30:09.138520,-0.042358,0.057251,0.922729,-3.051758,2.136230,-81.481934
2024-12-31 11:30:09.147520,0.179810,0.035034,1.097046,-2.929688,-4.577637,-79.772949
2024-12-31 11:30:09.155520,0.132812,-0.054443,1.084839,-2.136230,-0.549316,-83.923340
2024-12-31 11:30:09.164520,-0.337524,-0.214233,0.909424,-12.512207,6.591797,-86.364746
2024-12-31 11:30:09.172520,-0.133179,-0.219727,0.956299,-4.211426,-4.211426,-81.176758
2024-12-31 11:30:09.181520,-0.030884,-0.288208,0.947266,-5.126953,-2.990723,-69.519043
2024-12-31 11:30:09.189520,0.063843,-0.287109,1.053833,-5.126953,-2.197266,-56.579590
2024-12-31 11:30:09.198520,-0.088867,-0.300415,0.959106,-3.845215,6.408691,-45.471191
2024-12-31 11:30:09.206520,0.035400,-0.319946,1.043091,2.075195,-0.061035,-41.503906
2024-12-31 11:30:09.215520,-0.130371,-0.322021,1.007690,-5.554199,-0.854492,-39.245605
2024-12-31 11:30:09.223520,0.029785,-0.345215,1.013794,-0.732422,-0.183105,-30.029297
2024-12-31 11:30:09.231520,0.055542,-0.269775,1.076538,0.549316,-2.014160,-26.367188
2024-12-31 11:30:09.240520,-0.050293,-0.277222,1.005127,-5.493164,3.234863,-19.531250
2024-12-31 11:30:09.248520,-0.002319,-0.255981,0.999390,-6.103516,3.906250,-17.395020
2024-12-31 11:30:09.257520,-0.063965,-0.406250,0.997437,-6.591797,7.263184,-16.967773
2024-12-31 11:30:09.265520,-0.003296,-0.139893,1.008667,-3.295898,1.464844,-9.521484
2024-12-31 11:30:09.274520,-0.043335,-0.232544,1.021729,-8.544922,1.220703,3.662109
2024-12-31 11:30:09.282520,-0.040161,-0.230225,1.030762,-13.000488,5.187988,13.000488
2024-12-31 11:30:09.291520,-0.132568,-0.466919,0.967163,-10.253906,3.906250,21.362305
2024-12-31 11:30:09.299520,0.005981,-0.354492,1.069824,-3.967285,-0.427246,25.146484
2024-12-31 11:30:09.308520,-0.158813,-0.428101,0.970337,-4.699707,-1.464844,36.865234
2024-12-31 11:30:09.316520,-0.018555,-0.274170,1.015381,-8.544922,3.051758,50.720215
2024-12-31 11:30:09.325520,-0.126221,-0.371460,0.908813,-3.356934,-1.892090,59.997559
2024-12-31 11:30:09.333520,0.115479,-0.255249,0.968628,-0.976562,-1.464844,67.443848
2024-12-31 11:30:09.342520,0.073120,-0.254272,0.892334,0.366211,4.394531,64.758301
2024-12-31 11:30:09.350520,0.018433,-0.099487,1.035400,-6.774902,-0.976562,64.208984
2024-12-31 11:30:09.358520,-0.006592,-0.151123,1.006958,-3.051758,1.892090,61.157227
2024-12-31 11:30:09.367520,-0.035400,-0.150269,1.036987,-4.028320,4.272461,58.593750
2024-12-31 11:30:09.375520,-0.009644,-0.074219,1.017578,-1.281738,3.051758,61.340332
2024-12-31 11:30:09.384520,0.109253,-0.074951,0.989746,0.549316,-0.732422,66.528320
2024-12-31 11:30:09.392520,-0.036621,-0.149170,0.930298,-9.277344,2.380371,66.467285
2024-12-31 11:30:09.401520,-0.021729,-0.146118,0.941162,-11.413574,8.789062,65.734863
2024-12-31 11:30:09.409520,-0.096558,-0.160767,1.042358,-7.263184,5.737305,64.758301
2024-12-31 11:30:09.418520,0.004150,-0.018555,1.100952,-10.742188,-4.821777,67.199707
2024-12-31 11:30:09.426520,-0.034180,-0.126099,0.933716,-14.953613,-6.408691,65.185547
2024-12-31 11:30:09.435520,-0.073730,-0.105225,1.016602,-19.958496,3.234863,57.678223
2024-12-31 11:30:09.443520,-0.165771,-0.050537,1.059937,-23.742676,-2.868652,61.218262
2024-12-31 11:30:09.452520,0.097046,0.014526,0.948853,-9.887695,-0.793457,57.678223
2024-12-31 11:30:09.460520,-0.054810,-0.027344,1.097046,1.037598,3.234863,48.034668
2024-12-31 11:30:09.469520,-0.063599,-0.072876,0.927979,-0.122070,-4.211426,49.804688
2024-12-31 11:30:09.477520,-0.010742,-0.024780,0.926758,0.305176,-1.464844,43.395996
2024-12-31 11:30:09.485520,-0.020508,0.103149,1.039917,7.446289,0.305176,33.325195
2024-12-31 11:30:09.494520,0.051147,0.205078,1.054443,36.499023,-0.244141,14.953613
2024-12-31 11:30:09.502520,-0.304688,0.128906,0.901489,51.025391,5.920410,-31.738281
2024-12-31 11:30:09.511520,0.033569,0.283691,1.015625,-0.122070,1.770020,6.774902
2024-12-31 11:30:09.519520,-0.043945,0.204712,0.951782,-12.695312,-0.549316,49.377441
2024-12-31 11:30:09.528520,0.000610,0.238525,1.101562,2.746582,1.586914,51.452637
2024-12-31 11:30:09.536520,-0.105225,0.198730,1.097046,-7.263184,3.784180,57.189941
2024-12-31 11:30:09.545520,0.042847,0.157104,0.982910,-4.455566,3.051758,53.222656
2024-12-31 11:30:09.553520,0.116821,0.248047,1.060547,-6.164551,10.559082,50.720215
2024-12-31 11:30:09.562520,0.075562,0.264526,1.037109,-9.765625,5.004883,50.170898
2024-12-31 11:30:09.570520,-0.017578,0.310059,0.970093,-1.831055,-1.464844,36.804199
2024-12-31 11:30:09.579520,-0.018188,0.240479,1.098267,2.380371,-3.479004,28.381348
2024-12-31 11:30:09.587520,0.051758,0.294312,1.000488,-3.173828,-0.671387,23.498535
2024-12-31 11:30:09.595520,-0.004761,0.290894,1.018677,-5.737305,-0.671387,20.874023
2024-12-31 11:30:09.604520,0.071655,0.276367,1.053223,0.793457,3.601074,15.625000
2024-12-31 11:30:09.612520,-0.009399,0.301392,0.983887,-7.568359,6.713867,12.084961
2024-12-31 11:30:09.621520,0.064941,0.525513,1.000977,-2.075195,1.831055,14.709473
2024-12-31 11:30:09.629520,0.041748,0.379639,1.003174,-2.868652,2.075195,20.690918
2024-12-31 11:30:09.638520,0.023438,0.107666,1.013184,-0.671387,0.305176,9.643555
2024-12-31 11:30:09.646520,0.019897,0.298218,1.011841,2.197266,0.000000,7.263184
2024-12-31 11:30:09.655520,0.085693,0.387573,1.000854,-0.915527,0.915527,7.141113
2024-12-31 11:30:09.663520,0.089233,0.327271,0.993408,-6.408691,3.356934,1.037598
2024-12-31 11:30:09.672520,-0.025391,0.281006,1.085327,-0.122070,-2.624512,-7.873535
2024-12-31 11:30:09.680520,0.049561,0.267334,1.021240,1.037598,0.732422,-10.681152
2024-12-31 11:30:09.689520,-0.083740,0.105713,1.037598,-6.225586,0.244141,-7.202148
2024-12-31 11:30:09.697520,-0.028687,0.240112,1.007935,-3.479004,-0.366211,-10.498047
2024-12-31 11:30:09.706520,0.018066,0.286499,0.994751,-3.051758,5.493164,-9.155273
2024-12-31 11:30:09.714520,-0.070557,-0.032837,1.084595,-4.089355,4.272461,-26.611328
2024-12-31 11:30:09.722520,0.094238,0.072144,1.031738,-5.126953,3.540039,-31.066895
2024-12-31 11:30:09.731520,-0.024536,0.109009,0.919556,-7.080078,-0.488281,-39.062500
2024-12-31 11:30:09.739520,-0.114258,0.113525,0.961426,-6.347656,-2.502441,-43.701172
2024-12-31 11:30:09.748520,0.020996,0.053467,1.034424,7.446289,-1.708984,-43.334961
2024-12-31 11:30:09.756520,-0.006836,0.021851,0.976562,1.770020,4.028320,-42.480469
2024-12-31 11:30:09.765520,-0.015015,0.035034,0.964478,-12.634277,5.187988,-45.959473
2024-12-31 11:30:09.773520,-0.013672,0.051147,1.036865,-3.967285,-0.305176,-51.635742
2024-12-31 11:30:09.782520,0.047363,0.033936,0.995239,6.469727,2.685547,-52.062988
2024-12-31 11:30:09.790520,0.022827,0.032959,1.112549,8.972168,1.892090,-44.616699
2024-12-31 11:30:09.799520,-0.078857,0.007812,1.017700,1.953125,2.258301,-43.823242
2024-12-31 11:30:09.807520,-0.126221,0.045410,1.003906,-5.249023,-2.807617,-44.372559
2024-12-31 11:30:09.816520,0.004150,-0.035767,1.143433,0.000000,-8.972168,-54.138184
2024-12-31 11:30:09.824520,-0.079956,0.004639,1.002808,-9.643555,7.995605,-50.048828
2024-12-31 11:30:09.832520,-0.100952,0.037842,0.872925,-1.770020,5.126953,-52.673340
2024-12-31 11:30:09.841520,-0.021484,-0.004883,0.858398,-6.958008,0.244141,-53.100586
2024-12-31 11:30:09.849520,0.004395,-0.101929,1.053833,-1.220703,0.183105,-49.804688
2024-12-31 11:30:09.858520,0.062134,-0.051270,0.955200,0.305176,5.065918,-46.813965
2024-12-31 11:30:09.866520,0.087280,0.077026,0.989136,-11.657715,-0.854492,-49.316406
2024-12-31 11:30:09.875520,-0.183350,-0.183228,1.054932,-7.019043,-3.051758,-61.401367
2024-12-31 11:30:09.883520,0.100830,-0.139771,1.043213,-4.882812,3.784180,-59.265137
2024-12-31 11:30:09.892520,-0.071411,-0.071045,0.922119,-2.868652,6.286621,-52.795410
2024-12-31 11:30:09.900520,0.006714,0.043091,1.012085,0.671387,0.366211,-46.875000
2024-12-31 11:30:09.909520,0.087158,0.143921,0.962769,-1.770020,-7.263184,-43.212891
2024-12-31 11:30:09.917520,-0.154663,0.009521,0.891357,-13.488770,6.713867,-42.053223
2024-12-31 11:30:09.926520,-0.068604,-0.021118,0.968750,-5.187988,9.094238,-42.907715
2024-12-31 11:30:09.934520,-0.001221,0.033447,0.982788,-1.953125,3.112793,-41.625977
2024-12-31 11:30:09.943520,-0.223511,-0.093750,1.039307,0.732422,-5.798340,-45.227051
2024-12-31 11:30:09.951520,-0.012695,-0.016724,1.050537,1.037598,-9.033203,-45.837402
2024-12-31 11:30:09.959520,0.130859,-0.064819,1.101929,-2.258301,-1.525879,-40.710449
2024-12-31 11:30:09.968520,-0.004883,-0.109375,1.087280,-10.375977,4.089355,-37.109375
2024-12-31 11:30:09.976520,0.115967,-0.046265,1.063477,-5.737305,0.854492,-43.579102
2024-12-31 11:30:09.985520,0.028198,-0.116577,0.975586,-3.906250,-3.234863,-44.738770
2024-12-31 11:30:09.993520,-0.097168,-0.109375,0.983154,-5.310059,-4.028320,-45.227051
2024-12-31 11:30:10.002520,0.061768,-0.063721,0.996826,-2.990723,-0.732422,-38.513184
2024-12-31 11:30:10.010520,0.012329,-0.121826,1.078369,-1.403809,5.615234,-31.677246
2024-12-31 11:30:10.019520,0.006470,-0.150269,1.026978,0.244141,1.525879,-29.724121
2024-12-31 11:30:10.027520,-0.119385,-0.141602,0.963257,-4.150391,-2.929688,-32.470703
2024-12-31 11:30:10.036520,0.002075,-0.261353,1.031616,-3.479004,-0.366211,-30.639648
2024-12-31 11:30:10.044520,-0.124390,-0.261841,1.047363,-1.281738,0.610352,-31.127930
2024-12-31 11:30:10.053520,-0.013184,-0.310425,1.037109,-4.516602,4.699707,-20.935059
2024-12-31 11:30:10.061520,0.080811,-0.246094,0.996704,-1.647949,1.647949,-24.414062
2024-12-31 11:30:10.070520,-0.071167,-0.441650,1.032349,-6.225586,1.403809,-24.230957
2024-12-31 11:30:10.078520,-0.067871,-0.295410,1.004150,-6.591797,3.723145,-16.723633
2024-12-31 11:30:10.086520,-0.025146,-0.262207,1.009766,-7.141113,7.263184,-6.347656
2024-12-31 11:30:10.095520,-0.032593,-0.127197,1.020630,-9.460449,7.751465,-0.549316
2024-12-31 11:30:10.103520,-0.090454,-0.317139,1.017822,-12.268066,8.850098,10.742188
2024-12-31 11:30:10.112520,-0.159058,-0.476440,0.970459,-13.549805,6.652832,22.155762
2024-12-31 11:30:10.120520,-0.122192,-0.495361,0.970581,-11.108398,2.746582,31.311035
2024-12-31 11:30:10.129520,-0.087891,-0.372925,0.950562,-7.812500,1.770020,39.672852
2024-12-31 11:30:10.137520,-0.121582,-0.407104,1.037354,-2.502441,-0.122070,53.039551
2024-12-31 11:30:10.146520,-0.015503,-0.269043,1.053345,0.793457,-0.488281,65.429688
2024-12-31 11:30:10.154520,-0.015869,-0.365112,0.880737,-1.953125,-5.187988,73.791504
2024-12-31 11:30:10.163520,-0.005371,-0.262207,1.030029,-3.173828,-0.183105,77.697754
2024-12-31 11:30:10.171520,0.033569,-0.154053,1.005615,-2.258301,-0.061035,82.336426
2024-12-31 11:30:10.180520,-0.038696,-0.178467,0.992310,-2.197266,-1.525879,84.716797
2024-12-31 11:30:10.188520,-0.051025,-0.198975,0.932129,2.258301,4.699707,78.552246
2024-12-31 11:30:10.196520,-0.067627,-0.188354,0.929688,0.488281,9.643555,75.744629
2024-12-31 11:30:10.205520,-0.105103,-0.105591,1.093750,-1.708984,6.774902,75.805664
2024-12-31 11:30:10.213520,-0.065674,-0.139404,0.938232,0.976562,1.403809,76.782227
2024-12-31 11:30:10.222520,-0.083008,-0.093262,0.974365,-5.676270,6.286621,76.965332
2024-12-31 11:30:10.230520,-0.020630,-0.128296,1.064331,-3.173828,3.601074,72.998047
2024-12-31 11:30:10.239520,-0.136719,-0.077881,1.062622,-8.728027,0.854492,68.847656
2024-12-31 11:30:10.247520,-0.112671,-0.063843,1.067627,1.342773,0.244141,68.786621
2024-12-31 11:30:10.256520,-0.045898,-0.041748,1.066162,0.854492,4.699707,69.030762
2024-12-31 11:30:10.264520,-0.094360,0.013672,1.002686,-6.347656,5.554199,67.504883
2024-12-31 11:30:10.273520,-0.068726,0.001343,0.897583,-0.854492,-1.892090,67.443848
2024-12-31 11:30:10.281520,-0.038208,0.024048,1.117432,6.286621,3.356934,63.354492
2024-12-31 11:30:10.290520,-0.038940,0.078125,0.944946,-2.197266,-3.662109,67.382812
2024-12-31 11:30:10.298520,-0.001587,0.066772,0.968872,-4.394531,-1.464844,65.795898
2024-12-31 11:30:10.307520,-0.166016,0.161865,1.095947,-8.178711,-4.699707,60.302734
2024-12-31 11:30:10.315520,-0.057739,0.084961,1.073364,9.765625,-6.591797,58.898926
2024-12-31 11:30:10.323520,-0.052979,0.088989,1.003418,7.751465,9.277344,66.528320
2024-12-31 11:30:10.332520,0.016235,0.040283,0.990723,-3.906250,4.882812,78.857422
2024-12-31 11:30:10.340520,-0.082275,0.136597,1.036133,-11.596680,-1.892090,85.571289
2024-12-31 11:30:10.349520,-0.011963,0.048340,1.011841,-4.455566,3.540039,79.833984
2024-12-31 11:30:10.357520,-0.137939,0.130005,0.917725,0.671387,3.234863,76.232910
2024-12-31 11:30:10.366520,-0.065674,0.154175,0.985107,5.065918,-4.150391,73.364258
2024-12-31 11:30:10.374520,0.071777,0.250000,0.933350,-6.958008,4.699707,64.453125
2024-12-31 11:30:10.383520,-0.126343,0.215210,0.886353,-9.704590,6.652832,53.894043
2024-12-31 11:30:10.391520,0.105591,0.162354,0.985229,2.563477,-5.065918,45.349121
2024-12-31 11:30:10.400520,-0.091187,0.230957,0.993408,-4.699707,-7.934570,40.222168
2024-12-31 11:30:10.408520,-0.001831,0.165894,0.938721,-5.493164,-0.610352,32.958984
2024-12-31 11:30:10.417520,-0.026733,0.288452,1.020874,-2.746582,2.807617,24.475098
2024-12-31 11:30:10.425520,0.001465,0.140137,0.966797,5.981445,4.089355,18.188477
2024-12-31 11:30:10.433520,0.069702,0.197754,0.967773,-1.342773,4.760742,16.967773
2024-12-31 11:30:10.442520,-0.085693,0.159058,0.998291,-3.417969,-0.793457,15.258789
2024-12-31 11:30:10.450520,0.040771,0.276367,1.031494,-4.760742,-0.549316,11.962891
2024-12-31 11:30:10.459520,0.041138,0.285889,0.989258,-6.591797,0.305176,7.690430
2024-12-31 11:30:10.467520,-0.008545,0.320435,1.006836,-3.723145,0.610352,1.281738
2024-12-31 11:30:10.476520,0.010742,0.278442,1.010376,-3.295898,-0.061035,-2.990723
2024-12-31 11:30:10.484520,-0.002075,0.048706,1.007690,-0.915527,0.427246,-4.333496
2024-12-31 11:30:10.493520,0.055908,0.151001,1.011963,0.732422,0.549316,-3.417969
2024-12-31 11:30:10.501520,0.117310,0.240356,1.016479,1.586914,0.549316,-18.249512
2024-12-31 11:30:10.510520,0.097168,0.337524,0.979980,-0.671387,1.220703,-37.414551
2024-12-31 11:30:10.518520,-0.145142,0.232910,0.992065,-2.441406,2.136230,-54.992676
2024-12-31 11:30:10.527520,0.112061,0.227539,1.028198,3.051758,1.831055,-71.228027
2024-12-31 11:30:10.535520,-0.137207,0.209839,1.024902,-2.990723,0.671387,-97.106934
2024-12-31 11:30:10.544520,-0.075439,0.249268,0.980713,-0.244141,0.244141,-102.478027
2024-12-31 11:30:10.552520,0.104248,0.338867,1.019409,-1.831055,-5.615234,-97.167969
2024-12-31 11:30:10.560520,0.110107,0.261230,1.057129,-2.929688,-5.859375,-78.552246
2024-12-31 11:30:10.569520,0.011230,0.199951,0.947021,-6.530762,-3.417969,-82.824707
2024-12-31 11:30:10.577520,0.078247,0.265381,1.062134,1.159668,1.892090,-87.768555
2024-12-31 11:30:10.586520,0.100220,0.274048,1.010986,-3.967285,5.615234,-94.055176
2024-12-31 11:30:10.594520,-0.385986,-0.177734,0.938721,0.732422,2.685547,-102.172852
2024-12-31 11:30:10.603520,0.326904,-0.029541,0.937256,-10.009766,-3.356934,-96.008301
2024-12-31 11:30:10.611520,0.026855,0.194580,0.994995,-1.281738,-3.845215,-84.289551
2024-12-31 11:30:10.620520,0.164795,0.381714,0.949463,6.713867,-6.103516,-83.862305
2024-12-31 11:30:10.628520,0.194702,0.242920,0.960571,-2.380371,3.601074,-95.092773
2024-12-31 11:30:10.637520,-0.219727,-0.064087,1.066650,-7.568359,4.821777,-116.088867
2024-12-31 11:30:10.645520,-0.170166,0.027344,1.035034,-3.967285,-0.183105,-107.238770
2024-12-31 11:30:10.654520,0.108154,0.120605,1.005371,4.577637,0.183105,-100.952148
2024-12-31 11:30:10.662520,-0.245972,0.017090,0.958130,0.244141,3.662109,-106.811523
2024-12-31 11:30:10.670520,-0.053833,-0.072021,1.076172,-5.004883,-0.122070,-114.868164
2024-12-31 11:30:10.679520,-0.087769,0.252808,1.022705,-6.347656,-1.525879,-118.835449
2024-12-31 11:30:10.687520,-0.115234,0.186401,0.921387,-3.723145,-0.122070,-94.604492
2024-12-31 11:30:10.696520,-0.242310,0.034790,0.997070,-0.061035,-4.882812,-75.500488
2024-12-31 11:30:10.704520,0.069824,0.197021,0.996460,-3.967285,2.502441,-38.513184
2024-12-31 11:30:10.713520,0.006104,-0.117432,1.139282,1.770020,7.263184,-18.859863
2024-12-31 11:30:10.721520,0.038696,-0.076782,1.112183,-12.329102,-1.098633,-36.254883
2024-12-31 11:30:10.730520,-0.098145,0.204712,0.891235,0.915527,0.976562,-43.945312
2024-12-31 11:30:10.738520,-0.046265,0.042603,0.932861,0.000000,-3.540039,-34.240723
2024-12-31 11:30:10.747520,0.125488,0.012329,0.908203,-5.615234,1.647949,-32.287598
2024-12-31 11:30:10.755520,-0.180908,-0.115479,1.039551,-12.939453,3.479004,-55.114746
2024-12-31 11:30:10.764520,-0.119507,-0.255127,1.072388,-3.540039,0.549316,-44.616699
2024-12-31 11:30:10.772520,-0.059326,-0.027344,1.063477,-5.126953,0.305176,-35.278320
2024-12-31 11:30:10.781520,-0.096313,-0.132935,1.022095,-5.493164,0.061035,-27.343750
2024-12-31 11:30:10.789520,-0.012085,-0.114502,0.925537,-7.812500,1.770020,-19.653320
2024-12-31 11:30:10.797520,-0.013184,-0.261963,0.980835,-4.821777,1.892090,-15.014648
2024-12-31 11:30:10.806520,-0.038208,-0.275269,1.006836,-6.896973,-0.732422,-18.859863
2024-12-31 11:30:10.814520,0.012817,-0.341919,1.067505,-2.929688,1.525879,-27.465820
2024-12-31 11:30:10.823520,-0.003418,-0.227661,1.046265,-2.014160,1.831055,-36.682129
2024-12-31 11:30:10.831520,-0.058594,-0.167114,0.939819,-2.136230,2.136230,-37.353516
2024-12-31 11:30:10.840520,-0.136841,-0.434937,1.046509,-2.502441,-0.915527,-31.982422
2024-12-31 11:30:10.848520,-0.240112,-0.341187,1.019409,2.685547,-0.122070,-19.470215
2024-12-31 11:30:10.857520,-0.013062,-0.424072,1.022461,2.929688,-1.159668,-13.732910
2024-12-31 11:30:10.865520,-0.200317,-0.274414,1.020874,-0.488281,0.061035,-12.756348
2024-12-31 11:30:10.874520,-0.108887,-0.267578,1.018066,-0.854492,2.319336,-18.249512
2024-12-31 11:30:10.882520,-0.124146,-0.333984,0.995605,-2.380371,0.732422,-21.179199
2024-12-31 11:30:10.891520,-0.151489,-0.300903,1.000488,-4.699707,0.305176,-20.874023
2024-12-31 11:30:10.899520,-0.120239,-0.288330,1.007568,-5.004883,-0.183105,-18.188477
2024-12-31 11:30:10.908520,-0.020752,-0.035767,1.009033,-4.211426,0.366211,-7.446289
2024-12-31 11:30:10.916520,-0.006470,-0.021851,1.008667,-4.272461,1.159668,-1.464844
2024-12-31 11:30:10.924520,-0.009644,-0.045166,1.010498,-4.394531,1.708984,-1.647949
2024-12-31 11:30:10.933520,0.098877,-0.155151,1.005615,-4.638672,2.502441,-1.586914
2024-12-31 11:30:10.941520,0.201050,-0.292358,1.002075,-4.150391,2.746582,-9.460449
2024-12-31 11:30:10.950520,-0.141602,-0.298950,1.020630,-5.249023,1.708984,-21.606445
2024-12-31 11:30:10.958520,-0.309570,-0.448608,0.976318,-5.859375,3.784180,1.525879
2024-12-31 11:30:10.967520,-0.224731,-0.320435,1.011230,-5.676270,1.525879,30.334473
2024-12-31 11:30:10.975520,-0.148315,-0.333618,1.056641,-1.159668,0.976562,32.592773
2024-12-31 11:30:10.984520,-0.057251,-0.318359,1.051147,-1.892090,0.610352,29.541016
2024-12-31 11:30:10.992520,-0.056641,-0.264038,0.992920,-3.723145,2.014160,31.921387
2024-12-31 11:30:11.001520,-0.101562,-0.296631,0.989502,-4.516602,1.464844,45.471191
2024-12-31 11:30:11.009520,0.015869,-0.201172,0.999390,-2.624512,3.845215,53.955078
2024-12-31 11:30:11.018520,-0.035645,-0.234863,0.987793,-4.211426,0.244141,55.603027
2024-12-31 11:30:11.026520,-0.006226,-0.147949,1.055542,-5.493164,0.000000,57.434082
2024-12-31 11:30:11.034520,-0.024414,-0.207520,1.034912,1.831055,2.136230,58.105469
2024-12-31 11:30:11.043520,-0.033569,-0.104126,0.997559,-3.479004,3.112793,67.504883
2024-12-31 11:30:11.051520,0.032349,-0.171265,0.942749,1.342773,1.708984,73.242188
2024-12-31 11:30:11.060520,-0.075928,-0.139404,0.877930,-5.249023,7.507324,74.340820
2024-12-31 11:30:11.068520,-0.254272,-0.237549,0.981934,0.427246,4.699707,76.049805
2024-12-31 11:30:11.077520,-0.098267,0.014648,1.180786,-5.310059,6.713867,78.552246
2024-12-31 11:30:11.085520,-0.026611,-0.096924,0.977173,-0.244141,0.061035,82.397461
2024-12-31 11:30:11.094520,-0.085083,-0.061646,0.982056,-0.732422,0.061035,81.054688
2024-12-31 11:30:11.102520,-0.115601,-0.009766,0.827881,-9.094238,7.690430,80.993652
2024-12-31 11:30:11.111520,-0.032104,0.141113,1.126953,-3.356934,6.286621,76.049805
2024-12-31 11:30:11.119520,-0.069824,-0.042847,0.983154,7.019043,7.080078,69.213867
2024-12-31 11:30:11.128520,-0.001221,-0.015259,1.018433,-8.117676,5.310059,76.599121
2024-12-31 11:30:11.136520,-0.298340,-0.138306,1.018433,-6.774902,-2.746582,86.059570
2024-12-31 11:30:11.145520,0.065186,-0.049194,0.905396,-1.586914,4.150391,107.604980
2024-12-31 11:30:11.153520,0.034546,0.227783,1.337158,-2.807617,-0.976562,120.483398
2024-12-31 11:30:11.161520,-0.014160,0.060059,0.817261,2.807617,3.234863,111.633301
2024-12-31 11:30:11.170520,-0.074585,0.041016,0.952515,-6.347656,5.126953,98.937988
2024-12-31 11:30:11.178520,0.087402,0.107666,1.063843,-4.211426,-1.037598,92.834473
2024-12-31 11:30:11.187520,-0.153076,0.120605,1.105347,-15.197754,1.281738,87.219238
2024-12-31 11:30:11.195520,0.111328,0.172363,0.969849,3.234863,2.441406,75.500488
2024-12-31 11:30:11.204520,-0.019775,0.161987,1.105103,-1.831055,-2.685547,73.730469
2024-12-31 11:30:11.212520,0.031616,0.250244,0.997070,-11.840820,3.051758,66.955566
2024-12-31 11:30:11.221520,0.007935,0.295898,1.037842,-3.295898,3.784180,52.062988
2024-12-31 11:30:11.229520,-0.077759,0.311768,0.939819,-6.835938,1.953125,42.968750
2024-12-31 11:30:11.238520,0.000244,0.234985,0.948608,1.708984,-5.493164,29.785156
2024-12-31 11:30:11.246520,-0.024658,0.247925,0.966431,-2.014160,-5.249023,26.916504
2024-12-31 11:30:11.255520,-0.071045,0.248901,1.013062,-3.845215,1.464844,20.996094
2024-12-31 11:30:11.263520,0.102783,0.302612,1.007690,0.061035,5.615234,17.028809
2024-12-31 11:30:11.271520,-0.056519,0.280151,1.079956,-2.014160,0.366211,15.197754
2024-12-31 11:30:11.280520,0.002075,0.203613,0.956177,-2.746582,2.441406,6.164551
2024-12-31 11:30:11.288520,0.032959,0.261353,0.994751,-2.563477,2.258301,3.845215
2024-12-31 11:30:11.297520,0.042603,0.218994,0.973022,0.305176,-1.220703,-4.577637
2024-12-31 11:30:11.305520,0.051758,0.203247,0.996094,-2.258301,0.061035,-11.840820
2024-12-31 11:30:11.314520,0.015137,0.296753,1.015625,-3.051758,2.624512,-12.145996
2024-12-31 11:30:11.322520,0.011963,0.255981,1.004395,-4.211426,-0.854492,-11.962891
2024-12-31 11:30:11.331520,-0.044067,0.146118,1.005615,-1.953125,0.122070,-20.996094
2024-12-31 11:30:11.339520,0.069336,0.177002,1.012451,-2.624512,2.136230,-32.531738
2024-12-31 11:30:11.348520,-0.007446,0.265015,1.010986,-1.831055,0.671387,-48.828125
2024-12-31 11:30:11.356520,0.079712,0.440674,1.046021,3.540039,-1.281738,-49.011230
2024-12-31 11:30:11.365520,0.172241,0.542358,0.981079,1.525879,-1.220703,-65.063477
2024-12-31 11:30:11.373520,0.019897,0.438721,0.951050,-5.371094,2.014160,-71.166992
2024-12-31 11:30:11.382520,-0.025879,0.510498,0.989380,-8.666992,1.647949,-80.261230
2024-12-31 11:30:11.390520,0.057495,0.282593,1.069092,-8.972168,2.197266,-95.520020
2024-12-31 11:30:11.398520,0.220825,0.134277,1.009399,-1.953125,-0.366211,-97.351074
2024-12-31 11:30:11.407520,-0.109985,0.235596,0.948364,-2.807617,-1.647949,-106.140137
2024-12-31 11:30:11.415520,0.046387,0.202637,1.014282,-2.929688,-1.647949,-109.313965
2024-12-31 11:30:11.424520,-0.262817,0.159790,0.956787,-1.586914,2.685547,-105.590820
2024-12-31 11:30:11.432520,-0.015503,0.142700,1.032104,-8.972168,0.183105,-101.806641
2024-12-31 11:30:11.441520,0.063599,0.126099,1.047241,-0.976562,-9.948730,-104.309082
2024-12-31 11:30:11.449520,-0.085571,0.187988,1.008789,0.671387,-4.272461,-102.478027
2024-12-31 11:30:11.458520,-0.232788,0.090088,1.005127,-4.638672,6.164551,-91.308594
2024-12-31 11:30:11.466520,-0.035278,0.206909,0.979126,-0.610352,1.770020,-91.247559
2024-12-31 11:30:11.475520,-0.025391,0.339966,0.986206,1.708984,-1.770020,-93.078613
2024-12-31 11:30:11.483520,0.067505,0.272217,1.050537,4.577637,-1.098633,-95.703125
2024-12-31 11:30:11.492520,0.052734,0.165405,1.057983,-5.065918,-0.671387,-95.825195
2024-12-31 11:30:11.500520,-0.078613,0.284668,0.905273,-3.845215,0.061035,-104.431152
2024-12-31 11:30:11.509520,-0.130249,0.337769,1.026123,4.272461,-4.272461,-99.426270
2024-12-31 11:30:11.517520,0.054443,0.369507,0.969116,-7.446289,0.610352,-80.200195
2024-12-31 11:30:11.525520,-0.070190,0.289062,1.083252,-12.878418,5.310059,-75.744629
2024-12-31 11:30:11.534520,-0.100586,0.214966,0.986694,-1.098633,-2.319336,-81.542969
2024-12-31 11:30:11.542520,-0.026978,0.065918,1.057007,0.793457,-5.920410,-87.402344
2024-12-31 11:30:11.551520,-0.114380,-0.010010,1.098633,-9.643555,2.441406,-91.247559
2024-12-31 11:30:11.559520,-0.243896,-0.128296,1.072388,-6.347656,3.051758,-108.764648
2024-12-31 11:30:11.568520,-0.201782,-0.182251,0.932495,-1.708984,-4.455566,-102.539062
2024-12-31 11:30:11.576520,0.007446,-0.295532,1.070557,-10.864258,0.854492,-77.514648
2024-12-31 11:30:11.585520,-0.179688,-0.311890,0.979736,-7.934570,3.417969,-64.880371
2024-12-31 11:30:11.593520,-0.164551,-0.339966,0.975830,-0.488281,-0.183105,-67.871094
2024-12-31 11:30:11.602520,-0.171997,-0.369141,1.013550,0.854492,1.159668,-56.335449
2024-12-31 11:30:11.610520,-0.090454,-0.332886,1.016479,-2.136230,-0.305176,-47.912598
2024-12-31 11:30:11.619520,-0.050415,-0.398560,1.007324,-3.234863,2.441406,-51.940918
2024-12-31 11:30:11.627520,-0.238037,-0.290894,1.032959,-6.835938,-4.821777,-60.974121
2024-12-31 11:30:11.635520,-0.041016,-0.381958,1.055420,-4.821777,-4.638672,-59.448242
2024-12-31 11:30:11.644520,0.070923,-0.379761,0.965332,-0.122070,2.319336,-49.377441
2024-12-31 11:30:11.652520,-0.093628,-0.458374,1.017822,-8.850098,2.258301,-39.001465
2024-12-31 11:30:11.661520,-0.188843,-0.363892,1.039185,-8.911133,2.624512,-35.217285
2024-12-31 11:30:11.669520,-0.089355,-0.446045,1.015869,-0.732422,2.014160,-36.315918
2024-12-31 11:30:11.678520,-0.095581,-0.392334,1.005981,-1.464844,0.793457,-29.907227
2024-12-31 11:30:11.686520,-0.162964,-0.442871,0.997681,-6.164551,3.417969,-20.874023
2024-12-31 11:30:11.695520,-0.148682,-0.471436,1.012695,-6.652832,1.953125,-13.183594
2024-12-31 11:30:11.703520,-0.031616,-0.152100,1.010010,-4.882812,0.061035,-7.629395
2024-12-31 11:30:11.712520,-0.014404,-0.197388,1.022217,-6.530762,2.258301,2.929688
2024-12-31 11:30:11.720520,-0.118286,-0.402222,1.003418,-6.896973,6.347656,18.188477
2024-12-31 11:30:11.729520,-0.084717,-0.444702,1.042114,-2.197266,8.666992,28.686523
2024-12-31 11:30:11.737520,-0.175171,-0.519653,1.050659,-5.004883,3.173828,39.428711
2024-12-31 11:30:11.746520,-0.035645,-0.342285,1.060547,-13.183594,5.615234,47.790527
2024-12-31 11:30:11.754520,-0.102539,-0.311523,0.910278,-3.173828,3.967285,64.392090
2024-12-31 11:30:11.762520,-0.083130,-0.278931,1.182739,0.671387,-0.732422,84.411621
2024-12-31 11:30:11.771520,-0.036621,-0.390503,1.076294,-1.281738,-0.793457,86.242676
2024-12-31 11:30:11.779520,-0.110474,-0.368408,1.034424,0.976562,4.211426,80.444336
2024-12-31 11:30:11.788520,0.013306,-0.153564,0.991211,-3.051758,12.878418,77.026367
2024-12-31 11:30:11.796520,0.011597,-0.054932,1.086304,-3.723145,13.000488,88.317871
2024-12-31 11:30:11.805520,0.045044,-0.179932,0.880249,2.746582,1.586914,100.402832
2024-12-31 11:30:11.813520,-0.124878,-0.238281,1.239258,-0.976562,7.629395,94.665527
2024-12-31 11:30:11.822520,-0.055664,0.053955,1.054688,-10.742188,10.375977,93.811035
2024-12-31 11:30:11.830520,-0.045654,-0.053345,0.959106,-2.319336,6.042480,93.017578
2024-12-31 11:30:11.839520,-0.013916,-0.192505,0.970581,-2.868652,10.498047,89.782715
2024-12-31 11:30:11.847520,-0.175293,0.052856,0.983154,-5.554199,16.723633,89.843750
2024-12-31 11:30:11.856520,-0.063477,-0.133545,0.959351,5.004883,10.681152,95.397949
2024-12-31 11:30:11.864520,0.073486,-0.069946,1.207275,-4.394531,5.615234,93.078613
2024-12-31 11:30:11.873520,-0.101685,-0.058350,1.062500,-9.338379,11.840820,85.815430
2024-12-31 11:30:11.881520,0.167236,0.296875,1.289673,-9.277344,9.887695,90.942383
2024-12-31 11:30:11.889520,-0.047607,-0.082764,1.176514,3.967285,5.126953,105.651855
2024-12-31 11:30:11.898520,0.123535,0.002075,0.812744,10.559082,9.765625,96.557617
2024-12-31 11:30:11.906520,-0.134399,0.008179,0.959595,-6.469727,12.207031,91.064453
2024-12-31 11:30:11.915520,0.036865,0.155273,1.056274,9.094238,7.080078,84.411621
2024-12-31 11:30:11.923520,0.024780,0.012695,1.056641,8.605957,-2.441406,84.838867
2024-12-31 11:30:11.932520,-0.160156,-0.016724,1.045898,-10.131836,-4.394531,86.364746
2024-12-31 11:30:11.940520,-0.122314,-0.048828,0.868408,-2.563477,4.577637,82.031250
2024-12-31 11:30:11.949520,0.037598,0.015747,1.005981,-0.610352,2.258301,80.627441
2024-12-31 11:30:11.957520,-0.172241,0.239868,1.142700,0.305176,3.479004,82.031250
2024-12-31 11:30:11.966520,-0.031738,0.145264,1.098755,3.295898,-2.319336,93.322754
2024-12-31 11:30:11.974520,-0.198120,-0.014160,0.973877,-9.887695,-1.770020,100.524902
2024-12-31 11:30:11.983520,-0.064087,0.153931,0.983765,-9.460449,3.173828,102.600098
2024-12-31 11:30:11.991520,0.184692,0.355347,1.306396,-1.403809,2.990723,102.111816
2024-12-31 11:30:11.999520,-0.054688,-0.052002,0.563721,-9.033203,-3.723145,115.112305
2024-12-31 11:30:12.008520,-0.028931,0.232544,1.036499,-3.417969,-4.150391,111.022949
2024-12-31 11:30:12.016520,-0.177979,0.155029,1.014526,-3.295898,-1.037598,99.914551
2024-12-31 11:30:12.025520,-0.148438,0.287964,1.198975,-1.708984,-5.554199,94.970703
2024-12-31 11:30:12.033520,0.005737,0.243530,1.130249,8.422852,-6.835938,86.853027
2024-12-31 11:30:12.042520,0.025391,0.232544,0.820557,0.915527,-4.211426,76.354980
2024-12-31 11:30:12.050520,-0.134277,0.269775,0.947754,-4.638672,-1.281738,71.716309
2024-12-31 11:30:12.059520,0.029785,0.242676,1.025391,1.647949,-5.920410,70.861816
2024-12-31 11:30:12.067520,0.031128,0.306519,1.067139,5.432129,-8.422852,65.917969
2024-12-31 11:30:12.076520,0.120117,0.324707,1.011719,4.455566,-1.892090,48.950195
2024-12-31 11:30:12.084520,-0.099121,0.176880,1.026123,-2.075195,-3.112793,36.987305
2024-12-31 11:30:12.093520,0.034424,0.222900,0.972778,-6.774902,-3.051758,29.907227
2024-12-31 11:30:12.101520,0.027832,0.341431,1.052734,-5.249023,0.732422,24.353027
2024-12-31 11:30:12.110520,-0.102295,0.192505,0.941772,-6.042480,2.685547,20.080566
2024-12-31 11:30:12.118520,0.066040,0.338501,1.000366,-1.342773,-0.610352,16.540527
2024-12-31 11:30:12.126520,-0.013916,0.228638,0.999146,3.295898,-5.798340,10.070801
2024-12-31 11:30:12.135520,0.086304,0.266724,1.010742,-0.244141,1.037598,5.493164
2024-12-31 11:30:12.143520,0.026123,0.106567,1.003784,-2.197266,1.770020,3.051758
2024-12-31 11:30:12.152520,0.011719,0.097412,1.007202,-0.549316,1.220703,-2.868652
2024-12-31 11:30:12.160520,0.043945,0.220825,1.012695,0.549316,0.610352,-6.469727
2024-12-31 11:30:12.169520,-0.086182,0.331543,1.001587,-0.366211,0.488281,-13.916016
2024-12-31 11:30:12.177520,0.023804,0.279053,1.070190,-4.943848,1.953125,-25.756836
2024-12-31 11:30:12.186520,0.072510,0.271973,0.943115,-0.793457,6.530762,-32.653809
2024-12-31 11:30:12.194520,-0.083496,0.200562,1.043091,-5.249023,1.831055,-42.724609
2024-12-31 11:30:12.203520,-0.041992,0.158081,0.959961,-1.647949,-0.915527,-50.354004
2024-12-31 11:30:12.211520,-0.029663,0.143311,1.058472,-1.953125,-0.671387,-53.344727
2024-12-31 11:30:12.220520,0.064209,0.187622,0.980591,-5.371094,5.554199,-54.992676
2024-12-31 11:30:12.228520,-0.166626,0.080322,0.932007,-5.981445,9.216309,-61.279297
2024-12-31 11:30:12.236520,0.111206,0.151245,1.018921,0.427246,-1.037598,-68.786621
2024-12-31 11:30:12.245520,-0.067261,0.206421,1.051758,-3.051758,-1.037598,-75.439453
2024-12-31 11:30:12.253520,0.034668,0.115845,1.126709,-9.155273,3.295898,-76.354980
2024-12-31 11:30:12.262520,-0.137695,0.259033,0.982422,-2.075195,1.892090,-73.547363
2024-12-31 11:30:12.270520,-0.001953,0.215698,0.996704,-4.516602,4.699707,-83.312988
2024-12-31 11:30:12.279520,0.106079,0.206543,0.986328,-7.568359,-1.281738,-88.989258
2024-12-31 11:30:12.287520,-0.062500,0.250122,1.025146,-7.507324,3.173828,-94.604492
2024-12-31 11:30:12.296520,0.042969,0.230469,0.973755,-6.225586,-0.427246,-98.022461
2024-12-31 11:30:12.304520,-0.262695,0.212036,0.970581,-9.582520,-0.183105,-103.942871
2024-12-31 11:30:12.313520,-0.030762,0.205444,1.007812,3.051758,-5.981445,-107.116699
2024-12-31 11:30:12.321520,0.142456,0.123535,1.087036,-2.807617,-6.164551,-110.534668
2024-12-31 11:30:12.330520,0.032104,0.066162,0.986694,-1.586914,-3.784180,-108.825684
2024-12-31 11:30:12.338520,0.006836,0.171753,0.962769,-0.183105,-10.375977,-110.046387
2024-12-31 11:30:12.347520,-0.005371,0.021118,1.043945,1.220703,-0.915527,-111.694336
2024-12-31 11:30:12.355520,-0.233521,0.059448,0.960083,-0.610352,1.525879,-111.633301
2024-12-31 11:30:12.363520,0.143066,0.024048,0.969360,0.244141,-2.990723,-103.759766
2024-12-31 11:30:12.372520,-0.002319,0.067139,1.069214,-5.981445,-6.774902,-104.797363
2024-12-31 11:30:12.380520,-0.012573,0.099487,1.161133,-0.061035,9.033203,-105.590820
2024-12-31 11:30:12.389520,-0.127441,0.139038,0.802612,-3.295898,7.629395,-109.802246
2024-12-31 11:30:12.397520,0.042969,0.203003,0.985474,-6.103516,-4.943848,-116.149902
2024-12-31 11:30:12.406520,0.035767,0.133301,1.106445,-6.469727,-4.333496,-123.046875
2024-12-31 11:30:12.414520,-0.195679,0.162964,0.934570,-14.099121,-5.737305,-124.877930
2024-12-31 11:30:12.423520,-0.033813,-0.044800,0.955322,1.403809,2.014160,-130.676270
2024-12-31 11:30:12.431520,-0.195312,0.016357,1.006226,-0.976562,0.122070,-125.854492
2024-12-31 11:30:12.440520,-0.168091,0.006714,1.045288,-11.291504,-1.464844,-120.544434
2024-12-31 11:30:12.448520,-0.181030,-0.030029,0.980103,-6.469727,-0.305176,-113.037109
2024-12-31 11:30:12.457520,-0.067505,-0.054443,0.965576,-5.615234,-7.934570,-108.703613
2024-12-31 11:30:12.465520,0.058472,-0.120605,1.009033,-2.929688,-7.507324,-115.295410
2024-12-31 11:30:12.474520,-0.056152,-0.056885,1.037231,-7.080078,-0.732422,-108.642578
2024-12-31 11:30:12.482520,-0.196533,-0.104248,1.020752,1.647949,-0.854492,-108.215332
2024-12-31 11:30:12.490520,-0.133179,-0.086548,1.042847,-4.211426,-2.319336,-103.088379
2024-12-31 11:30:12.499520,-0.107178,-0.248291,0.994507,1.586914,-2.563477,-100.097656
2024-12-31 11:30:12.507520,-0.004761,-0.172974,1.099609,0.366211,2.014160,-91.613770
2024-12-31 11:30:12.516520,-0.245117,-0.293579,0.929443,-7.812500,1.464844,-92.895508
2024-12-31 11:30:12.524520,0.054565,-0.295532,1.019897,-3.601074,0.183105,-83.496094
2024-12-31 11:30:12.533520,-0.197510,-0.296265,0.975952,-7.324219,0.488281,-69.030762
2024-12-31 11:30:12.541520,-0.125488,-0.342407,1.129761,-3.784180,-0.244141,-58.105469
2024-12-31 11:30:12.550520,-0.084717,-0.364868,1.053711,-5.920410,-3.662109,-50.964355
2024-12-31 11:30:12.558520,-0.012451,-0.238403,0.936279,-6.835938,1.342773,-44.921875
2024-12-31 11:30:12.567520,-0.096069,-0.314331,0.996948,-7.995605,3.295898,-39.733887
2024-12-31 11:30:12.575520,-0.003296,-0.270020,1.001221,-2.807617,2.014160,-42.602539
2024-12-31 11:30:12.584520,-0.094604,-0.283813,1.031006,-1.098633,-0.122070,-40.344238
2024-12-31 11:30:12.592520,-0.154053,-0.345581,1.035278,-0.244141,1.403809,-32.531738
2024-12-31 11:30:12.600520,-0.074219,-0.277710,0.998169,-2.197266,2.868652,-20.629883
2024-12-31 11:30:12.609520,-0.085693,-0.345947,1.008179,-4.821777,1.037598,-11.657715
2024-12-31 11:30:12.617520,-0.065552,-0.248901,1.010742,-2.746582,0.915527,-5.371094
2024-12-31 11:30:12.626520,-0.063110,-0.198364,1.016235,-7.446289,3.479004,3.540039
2024-12-31 11:30:12.634520,-0.127197,-0.331177,1.014526,-9.216309,6.286621,20.019531
2024-12-31 11:30:12.643520,-0.201172,-0.434082,0.975708,-7.507324,8.239746,29.724121
2024-12-31 11:30:12.651520,-0.099121,-0.372437,1.019531,-7.080078,5.371094,40.039062
2024-12-31 11:30:12.660520,-0.239502,-0.563477,0.965820,-6.286621,-1.281738,55.603027
2024-12-31 11:30:12.668520,-0.028198,-0.314941,1.065552,-14.892578,1.220703,66.284180
2024-12-31 11:30:12.677520,-0.065674,-0.383423,1.029541,0.976562,-0.061035,73.669434
2024-12-31 11:30:12.685520,-0.073853,-0.401245,1.077271,-5.737305,3.784180,89.721680
2024-12-31 11:30:12.694520,-0.153809,-0.334229,1.052734,1.281738,3.784180,101.074219
2024-12-31 11:30:12.702520,-0.090454,-0.396362,1.022339,3.540039,0.671387,115.112305
2024-12-31 11:30:12.711520,-0.157715,-0.324951,0.981079,-7.324219,4.333496,123.962402
2024-12-31 11:30:12.719520,-0.041504,-0.215698,1.103760,4.394531,2.075195,126.281738
2024-12-31 11:30:12.727520,-0.100342,-0.115967,1.111328,-3.784180,3.112793,126.037598
2024-12-31 11:30:12.736520,-0.036255,-0.151367,1.015625,-7.080078,2.380371,127.258301
2024-12-31 11:30:12.744520,-0.252441,-0.105103,0.980347,-6.347656,8.117676,125.183105
2024-12-31 11:30:12.753520,-0.065063,-0.101807,0.975464,-3.234863,11.291504,130.798340
2024-12-31 11:30:12.761520,-0.012817,-0.140991,0.975708,-3.662109,13.122559,134.399414
2024-12-31 11:30:12.770520,-0.139893,-0.087524,0.881958,-14.465332,15.930176,135.253906
2024-12-31 11:30:12.778520,-0.121338,-0.039673,1.031494,-1.403809,11.413574,133.728027
2024-12-31 11:30:12.787520,-0.060181,-0.134033,0.979126,5.554199,10.253906,128.784180
2024-12-31 11:30:12.795520,-0.087280,-0.061035,0.864380,-0.854492,18.249512,122.192383
2024-12-31 11:30:12.804520,-0.086914,-0.016113,1.082275,-6.042480,11.230469,126.953125
2024-12-31 11:30:12.812520,0.048706,-0.032593,1.085205,5.737305,6.164551,125.854492
2024-12-31 11:30:12.821520,-0.109741,0.067993,0.982056,8.605957,7.202148,119.995117
2024-12-31 11:30:12.829520,-0.091919,0.029297,1.006226,2.807617,9.155273,120.971680
2024-12-31 11:30:12.837520,-0.087646,-0.007935,0.863892,5.493164,9.155273,122.619629
2024-12-31 11:30:12.846520,-0.093994,0.121460,1.000610,3.967285,6.042480,128.662109
2024-12-31 11:30:12.854520,-0.121216,0.156738,1.127319,-3.234863,3.906250,131.896973
2024-12-31 11:30:12.863520,0.128784,0.198120,0.954102,-12.878418,7.385254,138.610840
2024-12-31 11:30:12.871520,-0.051147,0.221313,1.159912,-9.033203,11.962891,128.845215
2024-12-31 11:30:12.880520,0.049316,0.141968,0.939087,2.319336,2.929688,122.558594
2024-12-31 11:30:12.888520,-0.178711,0.255981,1.033447,-2.258301,3.295898,113.708496
2024-12-31 11:30:12.897520,0.120483,0.191284,0.970947,3.295898,-2.075195,111.206055
2024-12-31 11:30:12.905520,-0.130615,0.193726,1.135010,-7.080078,1.159668,106.262207
2024-12-31 11:30:12.914520,-0.011963,0.214966,1.043091,5.798340,-0.427246,98.693848
2024-12-31 11:30:12.922520,-0.031250,0.301880,1.098633,4.882812,-4.211426,93.078613
2024-12-31 11:30:12.931520,0.016357,0.342407,0.988647,-9.216309,-4.333496,85.327148
2024-12-31 11:30:12.939520,-0.116333,0.210083,0.975342,5.981445,-5.859375,67.810059
2024-12-31 11:30:12.948520,0.002319,0.252930,0.988770,4.394531,-7.629395,55.236816
2024-12-31 11:30:12.956520,-0.069946,0.278564,1.003784,-8.422852,-10.925293,50.537109
2024-12-31 11:30:12.964520,-0.068481,0.225464,0.923950,-3.601074,-3.662109,45.837402
2024-12-31 11:30:12.973520,0.125488,0.401245,1.052612,1.647949,-4.760742,42.358398
2024-12-31 11:30:12.981520,-0.117310,0.154419,0.897339,0.061035,-7.629395,40.344238
2024-12-31 11:30:12.990520,0.105469,0.403320,1.030151,-6.408691,0.793457,32.043457
2024-12-31 11:30:12.998520,0.003784,0.294067,0.919800,-4.455566,3.967285,24.230957
2024-12-31 11:30:13.007520,0.012573,0.332031,1.015625,2.929688,4.577637,15.014648
2024-12-31 11:30:13.015520,0.009644,0.387207,1.022461,1.464844,-2.258301,7.690430
2024-12-31 11:30:13.024520,0.033081,0.291260,1.006714,1.220703,2.990723,0.122070
2024-12-31 11:30:13.032520,-0.004639,0.228271,0.999146,0.610352,4.394531,-7.141113
2024-12-31 11:30:13.041520,0.004150,0.307007,1.009399,-1.037598,2.441406,-10.620117
2024-12-31 11:30:13.049520,0.012939,0.334595,1.027466,-2.075195,-0.976562,-15.258789
2024-12-31 11:30:13.058520,-0.026611,0.441284,0.991211,-0.976562,-1.464844,-34.118652
2024-12-31 11:30:13.066520,-0.034424,0.386353,0.985962,6.774902,1.281738,-45.410156
2024-12-31 11:30:13.075520,-0.059937,0.288940,1.033691,-6.103516,2.441406,-49.194336
2024-12-31 11:30:13.083520,0.083984,0.191040,1.076416,-7.324219,0.976562,-57.434082
2024-12-31 11:30:13.091520,-0.062256,0.218750,0.934448,-4.455566,1.098633,-68.176270
2024-12-31 11:30:13.100520,0.079102,0.045776,1.037476,-3.356934,-2.014160,-72.937012
2024-12-31 11:30:13.108520,0.013672,0.161865,1.020752,-1.159668,-2.197266,-80.444336
2024-12-31 11:30:13.117520,-0.114746,0.081665,1.083618,-1.892090,-0.427246,-89.904785
2024-12-31 11:30:13.125520,0.046753,0.097778,1.071655,-1.831055,-2.685547,-91.247559
2024-12-31 11:30:13.134520,-0.104980,0.080933,0.973145,-10.559082,-2.746582,-85.693359
2024-12-31 11:30:13.142520,-0.075806,0.053345,0.983276,-1.464844,-0.732422,-81.481934
2024-12-31 11:30:13.151520,0.017700,0.076416,1.021973,-3.479004,-3.723145,-81.542969
2024-12-31 11:30:13.159520,0.037354,0.157593,0.909668,-7.751465,-2.441406,-92.468262
2024-12-31 11:30:13.168520,0.035889,0.220703,1.038818,-1.525879,-2.990723,-98.815918
2024-12-31 11:30:13.176520,0.008179,0.177734,0.965332,-1.586914,1.464844,-104.980469
2024-12-31 11:30:13.185520,-0.071045,0.098267,1.047241,-12.207031,0.854492,-115.173340
2024-12-31 11:30:13.193520,-0.055054,0.134399,0.897705,-0.122070,-1.525879,-118.164062
2024-12-31 11:30:13.202520,0.104248,0.073853,0.968018,-1.342773,-3.479004,-117.126465
2024-12-31 11:30:13.210520,-0.026245,0.151611,0.982178,-4.516602,-2.990723,-121.765137
2024-12-31 11:30:13.218520,-0.034424,0.094849,1.016479,0.061035,-3.784180,-119.628906
2024-12-31 11:30:13.227520,-0.094238,0.018555,1.052612,2.014160,-0.061035,-118.225098
2024-12-31 11:30:13.235520,-0.104858,-0.038574,1.046997,0.427246,-5.554199,-115.417480
2024-12-31 11:30:13.244520,-0.004883,0.043701,0.869751,-3.906250,-2.746582,-113.159180
2024-12-31 11:30:13.252520,0.002930,-0.009521,1.125854,-0.915527,10.009766,-111.938477
2024-12-31 11:30:13.261520,-0.136719,0.020630,0.818970,-2.075195,1.770020,-114.624023
2024-12-31 11:30:13.269520,-0.054443,0.043091,0.846313,-9.948730,-6.103516,-120.910645
2024-12-31 11:30:13.278520,-0.083984,-0.108398,1.247314,-5.126953,0.000000,-121.643066
2024-12-31 11:30:13.286520,-0.079712,0.002319,0.983398,-10.131836,4.150391,-118.286133
2024-12-31 11:30:13.295520,-0.157715,-0.078125,1.028320,-2.807617,1.647949,-118.835449
2024-12-31 11:30:13.303520,-0.111450,-0.072266,0.990845,-9.094238,2.807617,-112.548828
2024-12-31 11:30:13.312520,-0.048706,-0.199829,0.994873,0.244141,-1.281738,-108.276367
2024-12-31 11:30:13.320520,0.027344,-0.151978,1.221680,-15.075684,-3.417969,-100.524902
2024-12-31 11:30:13.328520,-0.123779,-0.259033,0.946899,-4.699707,3.723145,-93.933105
2024-12-31 11:30:13.337520,0.029175,-0.255615,0.925049,-2.929688,3.723145,-82.824707
2024-12-31 11:30:13.345520,0.020508,-0.159668,0.927490,-2.075195,-1.953125,-80.078125
2024-12-31 11:30:13.354520,-0.106201,-0.120605,1.107178,-8.117676,-7.751465,-72.753906
2024-12-31 11:30:13.362520,-0.047729,-0.050781,1.076416,-0.305176,-3.234863,-61.950684
2024-12-31 11:30:13.371520,-0.033447,-0.103638,1.010864,-1.831055,3.234863,-52.917480
2024-12-31 11:30:13.379520,-0.034180,-0.123169,0.993774,-0.976562,-1.953125,-53.222656
2024-12-31 11:30:13.388520,-0.057861,-0.108398,1.037109,-5.371094,-7.751465,-52.185059
2024-12-31 11:30:13.396520,-0.037231,-0.167847,1.077393,0.854492,-3.662109,-49.194336
2024-12-31 11:30:13.405520,0.080200,-0.134766,0.980225,-1.831055,2.197266,-42.297363
2024-12-31 11:30:13.413520,-0.071777,-0.130249,1.001221,0.915527,5.737305,-45.959473
2024-12-31 11:30:13.422520,-0.036133,-0.232300,0.977661,-2.990723,-0.732422,-48.034668
2024-12-31 11:30:13.430520,-0.024536,-0.196899,0.953247,-4.150391,-3.417969,-42.968750
2024-12-31 11:30:13.439520,-0.116821,-0.264526,1.016357,-9.704590,1.098633,-26.123047
2024-12-31 11:30:13.447520,0.046021,-0.197754,1.009399,-3.234863,0.610352,-15.808105
2024-12-31 11:30:13.455520,-0.086182,-0.155884,0.983521,-4.577637,5.920410,-9.155273
2024-12-31 11:30:13.464520,-0.032104,-0.274048,1.049194,-5.065918,6.530762,-11.779785
2024-12-31 11:30:13.472520,-0.022217,-0.209473,0.989502,-0.244141,2.807617,-19.836426
2024-12-31 11:30:13.481520,-0.035034,-0.114990,0.998291,-6.103516,-0.549316,-16.296387
2024-12-31 11:30:13.489520,-0.090698,-0.239502,1.021851,-4.272461,-0.793457,-6.774902
2024-12-31 11:30:13.498520,-0.018555,-0.114380,1.015503,-5.493164,0.427246,-0.671387
2024-12-31 11:30:13.506520,-0.011719,-0.092285,1.020508,-7.507324,2.624512,5.554199
2024-12-31 11:30:13.515520,-0.069580,-0.262695,1.012817,-7.995605,4.638672,13.000488
2024-12-31 11:30:13.523520,-0.109863,-0.402710,1.002197,-6.469727,6.347656,17.639160
2024-12-31 11:30:13.532520,-0.213989,-0.313354,1.017822,-9.765625,7.812500,28.015137
2024-12-31 11:30:13.540520,-0.001709,-0.307251,1.051758,-6.958008,2.014160,45.166016
2024-12-31 11:30:13.549520,-0.087158,-0.241211,1.068604,-11.291504,-4.638672,52.734375
2024-12-31 11:30:13.557520,0.035889,-0.226318,0.977417,-6.774902,-1.708984,57.922363
2024-12-31 11:30:13.565520,-0.091553,-0.315918,1.035034,2.685547,-2.380371,65.124512
2024-12-31 11:30:13.574520,-0.109619,-0.379639,0.958618,-5.859375,3.173828,72.875977
2024-12-31 11:30:13.582520,-0.265259,-0.335693,0.989624,-8.850098,6.469727,74.340820
2024-12-31 11:30:13.591520,-0.073975,-0.169556,1.208618,-9.704590,2.502441,90.026855
2024-12-31 11:30:13.599520,-0.131470,-0.223877,0.969482,2.258301,-1.098633,103.881836
2024-12-31 11:30:13.608520,-0.135376,-0.231934,0.939819,4.577637,-0.549316,105.773926
2024-12-31 11:30:13.616520,-0.090332,-0.219971,1.102295,0.610352,5.249023,103.637695
2024-12-31 11:30:13.625520,-0.090454,-0.170410,1.124878,-2.807617,6.958008,106.872559
2024-12-31 11:30:13.633520,-0.186279,-0.067261,0.971191,-9.948730,5.310059,111.755371
2024-12-31 11:30:13.642520,-0.031128,-0.164062,0.971313,7.202148,5.126953,110.107422
2024-12-31 11:30:13.650520,-0.062744,-0.086426,1.028931,3.906250,4.882812,110.473633
2024-12-31 11:30:13.659520,-0.117065,-0.098267,1.013916,0.610352,7.507324,111.755371
2024-12-31 11:30:13.667520,-0.108032,-0.139282,0.968750,-5.187988,13.610840,109.375000
2024-12-31 11:30:13.676520,-0.109253,-0.100464,0.917236,-8.483887,-0.244141,122.863770
2024-12-31 11:30:13.684520,-0.000977,-0.071167,0.980469,-2.075195,1.098633,127.563477
2024-12-31 11:30:13.692520,-0.064819,0.017090,0.979248,2.319336,5.737305,123.901367
2024-12-31 11:30:13.701520,-0.073608,-0.095337,0.929688,5.004883,8.239746,121.826172
2024-12-31 11:30:13.709520,-0.165527,0.002197,1.001587,-2.563477,6.408691,120.239258
2024-12-31 11:30:13.718520,-0.033203,0.011841,0.979492,2.075195,-6.103516,123.046875
2024-12-31 11:30:13.726520,-0.039429,0.061646,1.101074,4.760742,4.577637,121.276855
2024-12-31 11:30:13.735520,-0.186890,0.045044,0.945190,-6.164551,3.173828,127.136230
2024-12-31 11:30:13.743520,-0.046387,0.186646,1.085205,-5.676270,5.249023,121.398926
2024-12-31 11:30:13.752520,-0.040039,0.182007,1.005859,-7.446289,6.164551,111.999512
2024-12-31 11:30:13.760520,0.003540,0.194458,1.114258,0.549316,0.488281,104.675293
2024-12-31 11:30:13.769520,-0.012817,0.225098,1.066528,-7.385254,2.746582,101.501465
2024-12-31 11:30:13.777520,0.079956,0.217651,1.129395,2.075195,-2.258301,104.858398
2024-12-31 11:30:13.786520,-0.042847,0.191162,0.906006,-4.150391,3.479004,97.229004
2024-12-31 11:30:13.794520,0.002808,0.249268,1.081055,-3.845215,-0.366211,91.003418
2024-12-31 11:30:13.802520,-0.049438,0.209595,1.079834,6.835938,1.525879,82.702637
2024-12-31 11:30:13.811520,-0.026855,0.221558,0.943481,3.479004,6.774902,72.448730
2024-12-31 11:30:13.819520,-0.072144,0.264526,0.984985,-7.324219,-0.244141,63.354492
2024-12-31 11:30:13.828520,0.061035,0.310791,1.030151,1.586914,-0.122070,51.818848
2024-12-31 11:30:13.836520,-0.075928,0.284790,1.035278,-5.859375,-2.014160,45.837402
2024-12-31 11:30:13.845520,0.017090,0.247437,0.969971,-3.967285,0.671387,39.306641
2024-12-31 11:30:13.853520,-0.044312,0.248291,1.007202,-8.239746,3.601074,34.973145
2024-12-31 11:30:13.862520,0.023926,0.279541,1.014526,0.061035,4.638672,26.855469
2024-12-31 11:30:13.870520,-0.004517,0.314575,1.006958,-1.281738,0.122070,24.658203
2024-12-31 11:30:13.879520,0.043945,0.275146,0.999634,0.000000,0.671387,18.249512
2024-12-31 11:30:13.887520,0.005981,0.358032,0.998901,-6.958008,3.662109,11.901855
2024-12-31 11:30:13.896520,-0.016479,0.195312,1.001831,-5.493164,1.037598,6.896973
2024-12-31 11:30:13.904520,0.009277,0.232666,1.008545,3.112793,0.976562,-4.455566
2024-12-31 11:30:13.913520,0.015381,0.266968,1.005371,6.164551,0.549316,-10.498047
2024-12-31 11:30:13.921520,0.043213,0.298706,1.014648,1.647949,-0.427246,-17.150879
2024-12-31 11:30:13.929520,-0.029053,0.299805,1.017578,-5.004883,1.342773,-29.907227
2024-12-31 11:30:13.938520,0.003540,0.237305,1.013672,-0.427246,2.502441,-39.794922
2024-12-31 11:30:13.946520,-0.048950,0.323120,0.955688,-2.014160,0.976562,-42.724609
2024-12-31 11:30:13.955520,-0.114868,0.256226,0.980225,-1.892090,-0.732422,-48.461914
2024-12-31 11:30:13.963520,0.113281,0.246582,1.041870,3.234863,-0.976562,-56.518555
2024-12-31 11:30:13.972520,-0.026001,0.172607,1.064941,-0.244141,2.563477,-65.185547
2024-12-31 11:30:13.980520,0.042847,0.167114,1.017456,-8.666992,1.831055,-71.350098
2024-12-31 11:30:13.989520,-0.107422,0.252441,1.004761,-3.540039,-1.647949,-78.796387
2024-12-31 11:30:13.997520,-0.067261,0.276001,0.996094,-5.493164,-0.671387,-84.716797
2024-12-31 11:30:14.006520,-0.006226,0.323242,0.905640,-11.962891,-0.854492,-87.890625
2024-12-31 11:30:14.014520,0.053589,0.262085,0.984497,-6.042480,4.699707,-94.116211
2024-12-31 11:30:14.023520,-0.049805,0.281250,1.038940,-1.281738,1.708984,-105.163574
2024-12-31 11:30:14.031520,0.110229,0.182129,1.058105,-3.234863,-3.173828,-114.746094
2024-12-31 11:30:14.040520,-0.117798,0.214233,1.037231,-5.310059,5.554199,-110.839844
2024-12-31 11:30:14.048520,0.036865,0.222778,1.043945,0.976562,2.685547,-114.379883
2024-12-31 11:30:14.056520,-0.133545,0.137695,1.034058,-1.037598,-0.305176,-121.582031
2024-12-31 11:30:14.065520,0.029053,0.097534,1.064453,0.793457,1.342773,-121.215820
2024-12-31 11:30:14.073520,-0.138184,0.078613,0.943848,-3.845215,0.427246,-123.779297
2024-12-31 11:30:14.082520,-0.123657,-0.104736,1.027344,-4.150391,-4.943848,-124.145508
2024-12-31 11:30:14.090520,0.202759,-0.067139,1.100586,1.525879,-4.516602,-117.797852
2024-12-31 11:30:14.099520,-0.088257,-0.107910,1.028076,-0.183105,12.023926,-108.947754
2024-12-31 11:30:14.107520,-0.135498,-0.012817,0.993286,-3.662109,1.464844,-102.355957
2024-12-31 11:30:14.116520,-0.111206,-0.168823,0.939087,-5.249023,-8.972168,-109.191895
2024-12-31 11:30:14.124520,0.070190,-0.179199,1.179199,-6.713867,-8.728027,-110.595703
2024-12-31 11:30:14.133520,-0.139771,-0.131104,1.039185,-8.178711,7.385254,-107.360840
2024-12-31 11:30:14.141520,-0.057861,-0.130127,1.078003,-8.300781,12.878418,-102.966309
2024-12-31 11:30:14.150520,-0.121582,-0.129028,0.969727,-7.812500,1.342773,-104.919434
2024-12-31 11:30:14.158520,-0.275269,-0.258423,1.143555,-5.187988,-10.131836,-104.675293
2024-12-31 11:30:14.167520,-0.119751,-0.261963,1.035889,-2.929688,-3.723145,-92.468262
2024-12-31 11:30:14.175520,-0.124146,-0.189331,1.015381,-4.394531,5.310059,-78.918457
2024-12-31 11:30:14.183520,-0.084961,-0.052734,0.927246,-5.920410,3.784180,-78.002930
2024-12-31 11:30:14.192520,-0.076538,-0.154907,0.959839,-6.164551,-2.319336,-78.613281
2024-12-31 11:30:14.200520,-0.094604,-0.142090,1.062988,-2.441406,-5.371094,-77.392578
2024-12-31 11:30:14.209520,0.025635,-0.169067,1.164062,0.183105,-1.831055,-74.890137
2024-12-31 11:30:14.217520,-0.083374,0.000732,1.138428,-0.183105,1.159668,-71.899414
2024-12-31 11:30:14.226520,-0.009644,-0.149658,0.924072,-1.647949,2.746582,-65.490723
2024-12-31 11:30:14.234520,-0.094727,-0.205811,1.054321,-6.225586,-6.774902,-61.767578
2024-12-31 11:30:14.243520,-0.109497,-0.271729,1.013184,-6.103516,-6.164551,-54.748535
2024-12-31 11:30:14.251520,-0.138794,-0.340088,1.011841,-2.807617,-1.525879,-41.503906
2024-12-31 11:30:14.260520,-0.037354,-0.389038,1.023438,3.967285,3.173828,-33.752441
2024-12-31 11:30:14.268520,-0.102051,-0.254639,1.015625,-8.666992,2.380371,-32.531738
2024-12-31 11:30:14.277520,-0.081177,-0.287720,1.027832,-5.371094,1.098633,-26.428223
2024-12-31 11:30:14.285520,-0.042603,-0.286377,0.998413,1.464844,1.770020,-15.136719
2024-12-31 11:30:14.293520,-0.097900,-0.309937,0.998901,-2.197266,3.295898,-8.300781
2024-12-31 11:30:14.302520,-0.020020,-0.112793,1.011841,-4.272461,0.976562,-5.004883
2024-12-31 11:30:14.310520,-0.000732,-0.056030,1.010132,-5.798340,1.892090,5.493164
2024-12-31 11:30:14.319520,-0.014282,-0.155762,1.019287,-7.507324,3.112793,14.343262
2024-12-31 11:30:14.327520,-0.108154,-0.341553,1.005127,-9.094238,5.371094,20.874023
2024-12-31 11:30:14.336520,-0.088379,-0.408936,1.057251,-10.314941,7.263184,30.578613
2024-12-31 11:30:14.344520,-0.047974,-0.337280,1.020386,-12.390137,5.676270,45.166016
2024-12-31 11:30:14.353520,-0.192261,-0.362915,1.079712,-10.986328,3.173828,56.640625
2024-12-31 11:30:14.361520,-0.016479,-0.341431,0.870850,-13.549805,0.000000,79.467773
2024-12-31 11:30:14.370520,-0.091553,-0.371338,1.038452,-9.887695,-1.342773,90.393066
2024-12-31 11:30:14.378520,-0.081665,-0.313599,1.167969,-5.249023,-2.746582,94.482422
2024-12-31 11:30:14.387520,-0.100830,-0.273560,1.143188,-6.774902,7.568359,97.961426
2024-12-31 11:30:14.395520,-0.134277,-0.268188,1.065552,-7.202148,12.207031,101.989746
2024-12-31 11:30:14.404520,-0.111816,-0.198975,1.036865,-13.671875,7.324219,112.854004
2024-12-31 11:30:14.412520,-0.121094,-0.043701,1.139648,-24.658203,-2.807617,120.117188
2024-12-31 11:30:14.420520,-0.027710,-0.085938,0.915283,-20.263672,1.098633,120.788574
2024-12-31 11:30:14.429520,-0.107300,-0.042480,1.037842,-10.681152,12.145996,117.553711
2024-12-31 11:30:14.437520,-0.070557,-0.054443,0.998047,-7.019043,6.652832,122.192383
