millis,ax,ay,az,gx,gy,gz
2024-12-31 11:31:03.004211,-0.007568,0.259155,0.970703,-3.295898,0.732422,-0.671387
2024-12-31 11:31:03.012211,-0.009888,0.259155,0.968994,-3.173828,0.732422,-0.732422
2024-12-31 11:31:03.021211,-0.010376,0.263184,0.970093,-3.417969,0.671387,-0.671387
2024-12-31 11:31:03.029211,-0.008789,0.261719,0.971313,-2.929688,0.854492,-0.610352
2024-12-31 11:31:03.038211,-0.006470,0.261230,0.969849,-2.807617,0.854492,-0.732422
2024-12-31 11:31:03.046211,-0.004639,0.260742,0.971069,-3.051758,0.976562,-0.671387
2024-12-31 11:31:03.054211,-0.002808,0.259277,0.971313,-3.173828,0.854492,-0.671387
2024-12-31 11:31:03.063211,-0.001099,0.260498,0.972900,-3.051758,0.793457,-0.732422
2024-12-31 11:31:03.071211,-0.002075,0.259399,0.971069,-3.540039,0.793457,-0.793457
2024-12-31 11:31:03.080211,-0.003784,0.257324,0.972046,-2.929688,0.854492,-0.671387
2024-12-31 11:31:03.088211,-0.005249,0.255615,0.973389,-2.990723,0.732422,-0.671387
2024-12-31 11:31:03.097211,-0.007690,0.254639,0.974487,-2.807617,0.793457,-0.732422
2024-12-31 11:31:03.105211,-0.007935,0.256592,0.973145,-3.112793,0.793457,-0.671387
2024-12-31 11:31:03.114211,-0.009644,0.259399,0.973877,-3.173828,0.732422,-0.671387
2024-12-31 11:31:03.122211,-0.009277,0.261108,0.969482,-3.601074,0.854492,-0.671387
2024-12-31 11:31:03.131211,-0.007568,0.263062,0.970825,-3.601074,0.793457,-0.732422
2024-12-31 11:31:03.139211,-0.005737,0.263794,0.969238,-2.990723,0.793457,-0.732422
2024-12-31 11:31:03.148211,-0.003662,0.263794,0.969360,-2.807617,0.854492,-0.854492
2024-12-31 11:31:03.156211,-0.002319,0.261475,0.970459,-2.868652,0.976562,-0.732422
2024-12-31 11:31:03.165211,-0.000854,0.259888,0.971191,-2.746582,0.854492,-0.610352
2024-12-31 11:31:03.173211,-0.003174,0.257446,0.972046,-3.234863,0.793457,-0.671387
2024-12-31 11:31:03.181211,-0.003906,0.256958,0.972168,-3.295898,0.732422,-0.732422
2024-12-31 11:31:03.190211,-0.006592,0.258179,0.972046,-2.990723,0.915527,-0.732422
2024-12-31 11:31:03.198211,-0.008911,0.258545,0.973145,-3.173828,0.793457,-0.793457
2024-12-31 11:31:03.207211,-0.008667,0.258911,0.972412,-3.295898,0.793457,-0.671387
2024-12-31 11:31:03.215211,-0.009155,0.259399,0.971436,-3.173828,0.915527,-0.732422
2024-12-31 11:31:03.224211,-0.008789,0.260254,0.970215,-3.417969,0.976562,-0.793457
2024-12-31 11:31:03.232211,-0.007080,0.260986,0.970581,-3.417969,0.854492,-0.793457
2024-12-31 11:31:03.241211,-0.005005,0.261597,0.970581,-3.112793,0.915527,-0.671387
2024-12-31 11:31:03.249211,-0.002075,0.261475,0.969482,-3.112793,0.854492,-0.671387
2024-12-31 11:31:03.258211,-0.001465,0.262451,0.969604,-3.234863,0.854492,-0.793457
2024-12-31 11:31:03.266211,-0.001587,0.262085,0.969482,-3.112793,0.915527,-0.793457
2024-12-31 11:31:03.275211,-0.002197,0.261108,0.969849,-3.173828,0.976562,-0.671387
2024-12-31 11:31:03.283211,-0.003906,0.260498,0.969849,-3.234863,0.793457,-0.671387
2024-12-31 11:31:03.291211,-0.006348,0.260864,0.970337,-3.173828,0.793457,-0.732422
2024-12-31 11:31:03.300211,-0.008545,0.259766,0.970703,-3.173828,0.854492,-0.671387
2024-12-31 11:31:03.308211,-0.010254,0.259888,0.970337,-3.234863,0.915527,-0.671387
2024-12-31 11:31:03.317211,-0.008179,0.258423,0.970703,-3.051758,0.793457,-0.732422
2024-12-31 11:31:03.325211,-0.006104,0.258789,0.970337,-3.234863,0.793457,-0.732422
2024-12-31 11:31:03.334211,-0.003418,0.258423,0.971558,-3.356934,0.793457,-0.671387
2024-12-31 11:31:03.342211,-0.002319,0.257690,0.971436,-3.234863,0.793457,-0.671387
2024-12-31 11:31:03.351211,-0.001587,0.259033,0.970703,-3.173828,0.976562,-0.793457
2024-12-31 11:31:03.359211,-0.001831,0.259766,0.970581,-3.173828,0.915527,-0.793457
2024-12-31 11:31:03.368211,-0.003540,0.262695,0.970337,-3.234863,0.793457,-0.732422
2024-12-31 11:31:03.376211,-0.005859,0.261353,0.969116,-3.295898,0.854492,-0.671387
2024-12-31 11:31:03.385211,-0.008057,0.262207,0.970215,-3.417969,0.915527,-0.671387
2024-12-31 11:31:03.393211,-0.008911,0.261963,0.971436,-3.051758,0.976562,-0.610352
2024-12-31 11:31:03.402211,-0.007812,0.261108,0.971924,-3.112793,0.854492,-0.671387
2024-12-31 11:31:03.410211,-0.007690,0.258789,0.971558,-3.051758,0.854492,-0.732422
2024-12-31 11:31:03.418211,-0.006836,0.257568,0.971313,-2.990723,0.793457,-0.732422
2024-12-31 11:31:03.427211,-0.006226,0.258179,0.972290,-2.929688,0.976562,-0.793457
2024-12-31 11:31:03.435211,-0.004272,0.258911,0.971558,-3.173828,0.854492,-0.854492
2024-12-31 11:31:03.444211,-0.004272,0.259888,0.970581,-2.929688,0.854492,-0.732422
2024-12-31 11:31:03.452211,-0.004639,0.260864,0.970581,-3.051758,0.732422,-0.610352
2024-12-31 11:31:03.461211,-0.005249,0.281006,0.967529,-2.502441,0.854492,-0.732422
2024-12-31 11:31:03.469211,0.014526,0.316162,0.961182,1.831055,0.671387,-2.136230
2024-12-31 11:31:03.478211,0.046631,0.304932,0.978638,0.732422,0.366211,-5.371094
2024-12-31 11:31:03.486211,0.005615,0.283569,0.958374,-8.728027,0.183105,-5.249023
2024-12-31 11:31:03.495211,-0.013184,0.302368,0.970581,-6.713867,-0.793457,-6.347656
2024-12-31 11:31:03.503211,-0.031982,0.271362,0.951782,-8.544922,0.000000,-7.934570
2024-12-31 11:31:03.512211,0.003540,0.263550,0.948242,-3.234863,0.244141,-9.399414
2024-12-31 11:31:03.520211,-0.006470,0.255005,0.975220,-3.845215,-0.793457,-7.507324
2024-12-31 11:31:03.529211,-0.015137,0.291748,0.975952,-7.507324,-1.342773,-8.056641
2024-12-31 11:31:03.537211,-0.030151,0.221436,0.979248,-9.033203,-0.488281,-8.666992
2024-12-31 11:31:03.545211,-0.006714,0.150391,1.007812,-4.455566,0.366211,-8.605957
2024-12-31 11:31:03.554211,0.053345,0.203125,0.984985,-12.573242,1.953125,-5.737305
2024-12-31 11:31:03.562211,-0.015991,0.321899,0.961304,-22.216797,1.708984,-0.671387
2024-12-31 11:31:03.571211,-0.031494,0.338623,0.938354,-10.070801,-1.037598,-2.380371
2024-12-31 11:31:03.579211,-0.030273,0.247559,0.948486,2.868652,-2.136230,-5.981445
2024-12-31 11:31:03.588211,0.002075,0.257568,0.949097,4.638672,-0.793457,-6.103516
2024-12-31 11:31:03.596211,-0.039429,0.623291,0.825317,22.766113,-1.403809,-9.948730
2024-12-31 11:31:03.605211,-0.033936,0.144165,1.033813,135.559082,-6.652832,-34.423828
2024-12-31 11:31:03.613211,-0.000732,0.140259,1.003540,119.201660,-0.732422,-33.325195
2024-12-31 11:31:03.622211,0.002319,0.179810,0.993286,93.200684,-0.061035,-25.878906
2024-12-31 11:31:03.630211,-0.009766,0.126587,1.011353,82.641602,-4.028320,-25.207520
2024-12-31 11:31:03.639211,-0.003296,0.128052,1.006104,68.115234,-1.708984,-20.019531
2024-12-31 11:31:03.647211,0.007324,0.142212,0.997437,55.358887,0.549316,-15.563965
2024-12-31 11:31:03.655211,-0.000122,0.118042,1.003296,46.997070,-0.244141,-14.343262
2024-12-31 11:31:03.664211,-0.007446,0.107910,1.012817,36.865234,-0.854492,-11.901855
2024-12-31 11:31:03.672211,-0.003174,0.123535,1.003662,24.353027,0.305176,-7.995605
2024-12-31 11:31:03.681211,-0.000732,0.134644,0.999878,15.869141,0.976562,-5.554199
2024-12-31 11:31:03.689211,-0.001587,0.135986,0.997803,12.573242,0.305176,-5.126953
2024-12-31 11:31:03.698211,-0.002686,0.136230,0.998779,11.352539,0.122070,-4.882812
2024-12-31 11:31:03.706211,-0.000244,0.138672,0.994873,12.023926,0.488281,-4.333496
2024-12-31 11:31:03.715211,0.001343,0.142822,0.987915,14.282227,0.427246,-4.760742
2024-12-31 11:31:03.723211,-0.001587,0.160034,0.982788,20.507812,0.061035,-5.859375
2024-12-31 11:31:03.732211,0.013794,0.143921,0.975220,32.958984,-0.122070,-8.056641
2024-12-31 11:31:03.740211,-0.011353,0.165894,0.983643,52.368164,0.488281,-12.573242
2024-12-31 11:31:03.749211,-0.008423,0.122925,1.000610,68.664551,0.000000,-11.840820
2024-12-31 11:31:03.757211,-0.037231,0.179077,1.005127,84.716797,-0.488281,-14.038086
2024-12-31 11:31:03.766211,-0.040039,-0.031616,1.094360,87.768555,0.366211,-19.104004
2024-12-31 11:31:03.774211,-0.001343,0.095825,0.985474,79.467773,3.723145,-24.291992
2024-12-31 11:31:03.782211,0.008911,-0.003784,1.011353,85.754395,1.525879,-22.277832
2024-12-31 11:31:03.791211,-0.001709,-0.003540,1.016235,80.505371,1.037598,-17.578125
2024-12-31 11:31:03.799211,-0.001587,-0.022827,1.020874,69.152832,1.037598,-15.747070
2024-12-31 11:31:03.808211,0.019165,-0.108276,1.043579,58.105469,1.403809,-14.221191
2024-12-31 11:31:03.816211,-0.002197,-0.058716,1.036865,30.517578,-0.671387,-8.972168
2024-12-31 11:31:03.825211,-0.000854,-0.004639,1.005371,-1.403809,-0.244141,-2.624512
2024-12-31 11:31:03.833211,-0.009277,-0.007202,1.016724,-1.586914,-0.244141,-1.708984
2024-12-31 11:31:03.842211,-0.001587,-0.012329,1.010742,-3.845215,2.258301,-1.464844
2024-12-31 11:31:03.850211,0.010864,0.017578,0.998291,-5.737305,3.173828,-0.976562
2024-12-31 11:31:03.859211,0.003418,-0.009155,1.006836,-5.310059,2.197266,-1.220703
2024-12-31 11:31:03.867211,-0.004150,0.013184,1.010254,-6.408691,1.770020,-0.915527
2024-12-31 11:31:03.876211,-0.007446,0.019653,1.022095,-5.615234,3.356934,-2.441406
2024-12-31 11:31:03.884211,0.017578,-0.003540,1.003052,-10.986328,5.249023,-5.065918
2024-12-31 11:31:03.892211,-0.034302,0.079712,0.986328,-19.348145,4.394531,-2.563477
2024-12-31 11:31:03.901211,-0.018066,0.077759,1.007324,-5.004883,3.723145,-8.178711
2024-12-31 11:31:03.909211,0.010742,-0.101562,1.053589,9.582520,5.798340,-12.817383
2024-12-31 11:31:03.918211,-0.009644,-0.032593,1.023682,7.385254,13.183594,-8.361816
2024-12-31 11:31:03.926211,0.007935,0.000366,0.996460,-1.037598,19.470215,-3.845215
2024-12-31 11:31:03.935211,0.014771,-0.103271,1.020630,3.784180,20.751953,-5.493164
2024-12-31 11:31:03.943211,0.026367,0.010986,0.989380,0.976562,21.728516,-0.976562
2024-12-31 11:31:03.952211,0.030518,-0.001831,1.000610,-0.183105,21.240234,0.488281
2024-12-31 11:31:03.960211,0.046021,-0.014160,0.975342,-0.183105,18.798828,0.915527
2024-12-31 11:31:03.969211,0.059204,-0.010376,0.974243,-0.610352,11.291504,2.258301
2024-12-31 11:31:03.977211,0.000854,0.005493,1.021240,-2.197266,3.906250,2.380371
2024-12-31 11:31:03.986211,0.015625,-0.006592,0.997925,-1.220703,1.647949,0.610352
2024-12-31 11:31:03.994211,0.007202,-0.014526,1.002563,-1.037598,0.061035,-0.244141
2024-12-31 11:31:04.003211,0.037598,-0.024414,1.041626,-1.220703,1.770020,0.976562
2024-12-31 11:31:04.011211,-0.031494,0.036865,0.997070,-0.610352,7.202148,1.525879
2024-12-31 11:31:04.019211,0.026123,-0.013794,0.979980,-1.037598,9.704590,-1.342773
2024-12-31 11:31:04.028211,0.048828,-0.020264,0.968750,-1.953125,3.723145,-0.671387
2024-12-31 11:31:04.036211,0.048096,-0.004517,0.986938,-3.967285,-7.751465,-1.098633
2024-12-31 11:31:04.045211,0.025391,-0.031250,1.019775,-4.699707,-14.221191,-2.197266
2024-12-31 11:31:04.053211,0.171021,-0.114624,1.118896,-5.981445,-11.535645,1.037598
2024-12-31 11:31:04.062211,-0.077881,0.051758,1.016113,-10.681152,2.624512,12.145996
2024-12-31 11:31:04.070211,0.005249,0.041016,0.992065,-6.530762,7.446289,15.319824
2024-12-31 11:31:04.079211,0.023560,0.011230,0.990234,-5.859375,4.638672,4.394531
2024-12-31 11:31:04.087211,0.015015,-0.003174,1.010986,-8.544922,-4.394531,-1.342773
2024-12-31 11:31:04.096211,-0.004639,0.022705,1.030396,-12.878418,-5.981445,-4.455566
2024-12-31 11:31:04.104211,-0.000732,0.065430,1.008911,-11.718750,-0.305176,-7.385254
2024-12-31 11:31:04.113211,0.009155,0.016724,1.014160,-2.990723,4.760742,-13.000488
2024-12-31 11:31:04.121211,0.031616,-0.024292,1.008301,2.624512,9.765625,-16.174316
2024-12-31 11:31:04.130211,0.077759,0.035889,0.916260,2.197266,9.216309,-11.718750
2024-12-31 11:31:04.138211,0.104858,-0.036865,0.911621,10.803223,-16.235352,-16.601562
2024-12-31 11:31:04.146211,0.025757,0.014282,0.988037,1.342773,-38.269043,-17.028809
2024-12-31 11:31:04.155211,0.000977,-0.033936,1.059937,2.746582,-50.109863,-17.822266
2024-12-31 11:31:04.163211,-0.045776,0.105103,1.083374,6.530762,-40.893555,-9.033203
2024-12-31 11:31:04.172211,0.023438,0.107422,0.995972,2.441406,-14.892578,-3.112793
2024-12-31 11:31:04.180211,-0.016724,-0.050537,1.020142,-3.295898,-4.882812,-6.042480
2024-12-31 11:31:04.189211,-0.033203,0.057251,0.999878,-6.408691,-3.417969,-7.080078
2024-12-31 11:31:04.197211,-0.059570,-0.036011,1.003052,-0.976562,-3.356934,-12.512207
2024-12-31 11:31:04.206211,-0.056396,0.050659,1.008667,3.051758,-2.014160,-13.000488
2024-12-31 11:31:04.214211,0.006836,0.018311,1.013916,-0.366211,1.220703,-13.122559
2024-12-31 11:31:04.223211,0.020874,-0.181519,1.005005,-5.249023,0.427246,-16.479492
2024-12-31 11:31:04.231211,-0.010376,-0.093750,1.006226,-3.845215,-1.403809,-15.563965
2024-12-31 11:31:04.240211,-0.078125,0.198608,1.007690,-2.014160,-0.854492,-9.826660
2024-12-31 11:31:04.248211,0.138672,-0.255493,1.004272,-0.976562,0.427246,-11.657715
2024-12-31 11:31:04.256211,0.039795,-0.234009,1.002075,0.061035,1.647949,-12.390137
2024-12-31 11:31:04.265211,-0.003906,-0.028687,1.005127,-2.258301,0.976562,-4.272461
2024-12-31 11:31:04.273211,-0.008545,-0.010376,1.007202,-2.319336,0.854492,-0.732422
2024-12-31 11:31:04.282211,-0.008301,-0.006226,1.006958,-2.563477,0.732422,-0.793457
2024-12-31 11:31:04.290211,-0.007690,-0.003540,1.005981,-2.502441,1.037598,-0.671387
2024-12-31 11:31:04.299211,-0.007812,-0.003296,1.005371,-2.197266,0.732422,-0.793457
2024-12-31 11:31:04.307211,-0.009521,-0.007202,1.007690,-2.258301,0.305176,-0.976562
2024-12-31 11:31:04.316211,-0.009766,-0.004272,1.007202,-2.319336,0.305176,-1.220703
2024-12-31 11:31:04.324211,-0.008789,0.001221,1.007568,-2.441406,0.549316,-1.220703
2024-12-31 11:31:04.333211,-0.009766,0.017212,1.005981,-2.624512,0.488281,-1.525879
2024-12-31 11:31:04.341211,-0.009644,0.015137,1.008545,-2.502441,0.610352,-1.831055
2024-12-31 11:31:04.350211,-0.011597,-0.048218,1.007690,-2.197266,0.732422,-2.258301
2024-12-31 11:31:04.358211,-0.009888,-0.008057,1.007324,-2.746582,0.671387,-2.197266
2024-12-31 11:31:04.367211,-0.007812,0.000977,1.008179,-2.746582,0.915527,-1.831055
2024-12-31 11:31:04.375211,-0.009766,-0.000366,1.006592,-3.112793,0.793457,-2.075195
2024-12-31 11:31:04.383211,-0.006226,0.001099,1.007690,-2.929688,0.793457,-2.197266
2024-12-31 11:31:04.392211,-0.010864,-0.030396,1.006470,-3.112793,0.915527,-1.953125
2024-12-31 11:31:04.400211,-0.006958,-0.009399,1.006592,-2.868652,1.037598,-0.976562
2024-12-31 11:31:04.409211,-0.008057,-0.010376,1.005981,-2.868652,0.915527,-0.671387
2024-12-31 11:31:04.417211,-0.006226,-0.006104,1.007812,-2.563477,0.915527,-0.427246
2024-12-31 11:31:04.426211,0.001709,-0.009277,1.004517,-2.319336,1.342773,-0.366211
2024-12-31 11:31:04.434211,0.058228,-0.016113,1.006470,-2.624512,1.525879,0.427246
2024-12-31 11:31:04.443211,0.141602,0.006836,1.004272,-4.211426,1.892090,3.845215
2024-12-31 11:31:04.451211,-0.053467,0.000244,1.009521,-5.310059,2.380371,7.263184
2024-12-31 11:31:04.460211,-0.026611,-0.015015,1.008789,-2.685547,1.647949,6.652832
2024-12-31 11:31:04.468211,0.078979,0.008057,1.010254,-2.136230,1.525879,4.089355
2024-12-31 11:31:04.477211,-0.007202,-0.005859,1.006104,-2.624512,2.563477,2.746582
2024-12-31 11:31:04.485211,-0.030151,-0.017944,1.005981,-1.770020,2.624512,0.976562
2024-12-31 11:31:04.494211,0.067627,-0.028931,1.010254,0.549316,2.258301,-0.366211
2024-12-31 11:31:04.502211,-0.072998,-0.047119,1.010986,0.366211,2.624512,-3.784180
2024-12-31 11:31:04.510211,-0.008179,-0.055298,1.012939,-2.502441,1.037598,-0.671387
2024-12-31 11:31:04.519211,0.010742,-0.074097,1.009644,-4.943848,1.342773,5.371094
2024-12-31 11:31:04.527211,-0.058350,0.031738,1.007935,-5.432129,1.770020,11.108398
2024-12-31 11:31:04.536211,-0.038330,0.019531,1.010376,-2.929688,2.197266,11.657715
2024-12-31 11:31:04.544211,-0.011597,-0.013306,1.010498,-2.136230,2.258301,9.643555
2024-12-31 11:31:04.553211,0.001099,-0.006226,1.009277,-1.892090,2.868652,8.239746
2024-12-31 11:31:04.561211,-0.025879,0.026733,1.007324,-1.831055,2.563477,6.225586
2024-12-31 11:31:04.570211,-0.017090,0.001221,1.010986,-2.502441,1.831055,4.394531
2024-12-31 11:31:04.578211,-0.011475,-0.017212,1.010132,-3.784180,1.586914,1.831055
2024-12-31 11:31:04.587211,-0.012451,-0.014404,1.008179,-4.089355,2.197266,1.464844
2024-12-31 11:31:04.595211,-0.022217,-0.026123,1.018433,-3.784180,2.380371,0.488281
2024-12-31 11:31:04.604211,0.000732,-0.010864,1.000244,-2.502441,3.112793,-0.305176
2024-12-31 11:31:04.612211,0.006714,0.022095,1.007202,-2.380371,2.258301,-0.244141
2024-12-31 11:31:04.620211,0.010254,0.000000,1.026245,-2.075195,1.159668,-0.122070
2024-12-31 11:31:04.629211,-0.004150,-0.024658,1.007568,-1.953125,1.037598,0.122070
2024-12-31 11:31:04.637211,-0.009766,-0.015503,1.017334,-1.770020,-0.549316,1.647949
2024-12-31 11:31:04.646211,-0.012695,-0.017944,1.007446,-2.075195,-2.136230,1.831055
2024-12-31 11:31:04.654211,-0.028076,-0.020020,1.005493,-2.136230,-0.793457,1.525879
2024-12-31 11:31:04.663211,-0.157227,-0.116821,1.020508,-2.258301,-2.258301,3.601074
2024-12-31 11:31:04.671211,-0.070557,-0.108276,1.003418,-1.098633,-1.586914,7.202148
2024-12-31 11:31:04.680211,0.058105,0.110596,1.009277,-3.540039,1.647949,6.652832
2024-12-31 11:31:04.688211,0.052124,-0.004028,1.018188,-4.943848,2.624512,9.521484
2024-12-31 11:31:04.697211,-0.031738,-0.047729,1.002319,-2.685547,-0.061035,3.112793
2024-12-31 11:31:04.705211,0.183105,0.084961,1.030396,-2.563477,-3.173828,-0.366211
2024-12-31 11:31:04.714211,0.025513,0.055664,1.013672,-6.347656,0.183105,-5.187988
2024-12-31 11:31:04.722211,-0.545898,-0.182007,1.014404,-6.896973,1.831055,-7.202148
2024-12-31 11:31:04.731211,0.023682,0.031006,0.994385,-0.915527,1.708984,10.681152
2024-12-31 11:31:04.739211,0.163452,0.018433,1.041382,-2.685547,1.525879,6.774902
2024-12-31 11:31:04.747211,-0.336914,0.001343,0.992188,-5.249023,1.281738,-5.065918
2024-12-31 11:31:04.756211,0.108887,0.092651,1.018799,-2.014160,-0.061035,-5.554199
2024-12-31 11:31:04.764211,-0.315918,0.053833,1.023438,-5.798340,-1.281738,-12.634277
2024-12-31 11:31:04.773211,0.070190,0.029541,0.989258,-3.234863,0.915527,-12.695312
2024-12-31 11:31:04.781211,-0.120728,-0.118896,1.046265,-3.662109,-3.601074,-11.718750
2024-12-31 11:31:04.790211,0.415649,0.051636,1.101440,-3.417969,1.464844,-10.253906
2024-12-31 11:31:04.798211,0.589966,-0.056519,1.092651,-7.568359,3.051758,-16.418457
2024-12-31 11:31:04.807211,-0.504272,0.098755,0.949219,-3.417969,-1.708984,-24.108887
2024-12-31 11:31:04.815211,0.525269,-0.235962,1.005005,-3.479004,0.671387,-22.094727
2024-12-31 11:31:04.824211,0.340698,-0.012207,1.102417,-11.962891,4.272461,-18.188477
2024-12-31 11:31:04.832211,0.844360,-0.237061,1.118164,0.183105,-0.793457,-11.657715
2024-12-31 11:31:04.841211,-0.159790,-0.011841,1.011719,-3.234863,0.366211,-3.906250
2024-12-31 11:31:04.849211,0.424438,-0.080200,1.055420,-9.765625,1.159668,9.582520
2024-12-31 11:31:04.857211,-0.521606,0.029053,0.977173,-1.647949,2.929688,5.310059
2024-12-31 11:31:04.866211,0.128662,-0.099243,0.994873,-0.976562,4.211426,3.967285
2024-12-31 11:31:04.874211,0.199341,-0.064453,1.073975,-1.708984,4.211426,4.699707
2024-12-31 11:31:04.883211,-0.219604,0.028442,0.985596,-1.525879,-0.671387,0.366211
2024-12-31 11:31:04.891211,-0.159912,-0.037476,0.942261,-2.258301,-0.061035,-3.845215
2024-12-31 11:31:04.900211,-0.208252,-0.005249,0.959961,-4.882812,3.051758,-3.540039
2024-12-31 11:31:04.908211,-0.431396,0.043091,0.934937,-1.342773,0.183105,-4.333496
2024-12-31 11:31:04.917211,-0.056763,0.085083,0.993042,-2.197266,0.305176,-4.089355
2024-12-31 11:31:04.925211,0.236816,-0.043335,1.049683,-1.525879,4.028320,-3.234863
2024-12-31 11:31:04.934211,0.891846,-0.110107,1.067017,-6.225586,6.347656,-3.662109
2024-12-31 11:31:04.942211,-0.052856,0.120117,1.024048,-1.403809,3.234863,-13.000488
2024-12-31 11:31:04.951211,-0.046387,-0.033447,0.942017,0.427246,-2.563477,-7.263184
2024-12-31 11:31:04.959211,-0.377930,0.075195,0.918823,-6.103516,0.061035,-5.493164
2024-12-31 11:31:04.968211,-0.458496,-0.054443,0.912476,1.342773,1.098633,-11.108398
2024-12-31 11:31:04.976211,-0.242554,-0.126709,1.000488,-0.793457,2.075195,-11.962891
2024-12-31 11:31:04.984211,-0.259521,0.041138,0.882568,-7.263184,4.333496,-4.638672
2024-12-31 11:31:04.993211,0.073853,0.071899,1.006592,0.915527,1.525879,-9.033203
2024-12-31 11:31:05.001211,0.048340,0.174927,0.981812,-7.751465,8.728027,-13.977051
2024-12-31 11:31:05.010211,-0.002808,-0.167725,1.114380,2.685547,3.234863,-22.338867
2024-12-31 11:31:05.018211,-0.034058,-0.010864,0.907471,-8.178711,0.976562,-23.010254
2024-12-31 11:31:05.027211,-0.142090,-0.102783,1.019775,0.671387,0.061035,-31.311035
2024-12-31 11:31:05.035211,-0.016113,-0.135254,1.085938,-0.122070,1.708984,-25.085449
2024-12-31 11:31:05.044211,-0.218384,-0.110107,0.719604,1.525879,2.624512,-11.840820
2024-12-31 11:31:05.052211,0.140869,0.038452,1.203491,-8.544922,5.126953,-3.417969
2024-12-31 11:31:05.061211,-0.197388,-0.071899,0.849487,-0.976562,1.281738,-5.187988
2024-12-31 11:31:05.069211,0.231323,0.139526,1.144043,-8.666992,3.601074,-0.366211
2024-12-31 11:31:05.078211,-0.304199,-0.171997,0.836670,-6.713867,3.356934,-7.812500
2024-12-31 11:31:05.086211,-0.079590,-0.102905,0.982422,-6.713867,2.258301,-5.310059
2024-12-31 11:31:05.095211,0.166138,-0.088379,1.118896,0.427246,3.479004,-2.197266
2024-12-31 11:31:05.103211,-0.055420,0.078125,0.848022,-11.901855,4.516602,-0.305176
2024-12-31 11:31:05.111211,0.054688,-0.035034,1.087402,3.662109,-1.342773,-5.432129
2024-12-31 11:31:05.120211,-0.026855,0.037354,0.918701,-6.103516,3.173828,-0.793457
2024-12-31 11:31:05.128211,-0.055176,-0.061646,1.128906,1.831055,0.793457,0.671387
2024-12-31 11:31:05.137211,0.154419,0.022705,0.934937,-0.915527,5.004883,2.990723
2024-12-31 11:31:05.145211,0.070679,0.044922,0.973999,5.065918,0.854492,-5.920410
2024-12-31 11:31:05.154211,0.018188,0.083008,1.068604,-3.967285,0.427246,-9.582520
2024-12-31 11:31:05.162211,0.385986,0.064941,1.011353,-0.122070,0.610352,-8.666992
2024-12-31 11:31:05.171211,0.381226,0.050903,1.125000,1.342773,0.305176,-12.390137
2024-12-31 11:31:05.179211,-0.458252,-0.062622,1.004150,-6.835938,-1.892090,-14.892578
2024-12-31 11:31:05.188211,-0.021240,-0.107178,0.921753,-1.098633,-0.915527,-3.662109
2024-12-31 11:31:05.196211,0.112915,-0.101074,0.928833,2.136230,-0.244141,10.559082
2024-12-31 11:31:05.205211,0.641479,0.233765,1.066406,-5.676270,-2.258301,6.713867
2024-12-31 11:31:05.213211,-0.166138,-0.013794,0.963257,-5.065918,-2.441406,-16.601562
2024-12-31 11:31:05.222211,-0.173218,-0.120361,1.008423,-2.868652,-4.333496,-14.648438
2024-12-31 11:31:05.230211,0.049194,-0.021118,0.980103,0.183105,1.892090,-2.990723
2024-12-31 11:31:05.238211,0.122681,-0.078125,1.011353,-1.953125,-3.051758,-0.671387
2024-12-31 11:31:05.247211,0.041138,0.013184,1.020264,-1.953125,-0.305176,1.464844
2024-12-31 11:31:05.255211,0.213501,0.088989,0.992065,-2.502441,3.723145,-3.173828
2024-12-31 11:31:05.264211,0.021240,-0.002930,1.008057,-2.868652,1.586914,-5.249023
2024-12-31 11:31:05.272211,-0.007446,-0.012207,1.005127,-1.464844,0.183105,-2.929688
2024-12-31 11:31:05.281211,-0.025635,0.001831,1.008545,-2.502441,0.732422,-1.220703
2024-12-31 11:31:05.289211,0.023071,-0.006470,1.005981,-1.831055,-0.183105,-0.061035
2024-12-31 11:31:05.298211,0.010498,-0.013794,1.006104,-0.854492,-1.281738,0.122070
2024-12-31 11:31:05.306211,0.007202,-0.009277,1.006714,-0.915527,-1.525879,0.061035
2024-12-31 11:31:05.315211,0.077393,0.009644,1.008057,-0.427246,-2.197266,-0.122070
2024-12-31 11:31:05.323211,0.273438,0.107788,1.010498,-1.892090,-1.647949,-0.915527
2024-12-31 11:31:05.332211,0.090454,0.010742,1.004761,-3.662109,-1.708984,-2.014160
2024-12-31 11:31:05.340211,-0.002808,0.021240,1.019897,-2.685547,-2.807617,1.220703
2024-12-31 11:31:05.348211,0.426270,0.012695,0.975098,-5.249023,3.051758,-7.446289
2024-12-31 11:31:05.357211,0.132690,-0.088135,0.993774,-3.662109,1.586914,-4.455566
2024-12-31 11:31:05.365211,0.004517,-0.014038,1.018677,-2.441406,-2.258301,5.065918
2024-12-31 11:31:05.374211,-0.002319,-0.049194,1.045898,-2.929688,2.197266,8.666992
2024-12-31 11:31:05.382211,-0.165283,-0.230225,1.037354,-1.586914,1.892090,8.605957
2024-12-31 11:31:05.391211,0.121704,-0.131958,0.964844,-2.868652,2.685547,13.916016
2024-12-31 11:31:05.399211,0.381958,-0.079224,0.892578,-1.770020,-0.244141,21.911621
2024-12-31 11:31:05.408211,-0.099121,-0.052368,1.104004,-1.953125,1.037598,24.963379
2024-12-31 11:31:05.416211,0.141724,-0.035034,0.979126,-2.990723,2.319336,26.855469
2024-12-31 11:31:05.425211,0.116333,0.067993,1.035278,-7.019043,0.610352,29.296875
2024-12-31 11:31:05.433211,0.171509,0.042480,0.935547,-0.976562,1.281738,28.076172
2024-12-31 11:31:05.442211,0.070312,-0.064331,1.078247,-3.479004,-1.892090,29.296875
2024-12-31 11:31:05.450211,-0.059692,-0.130249,1.116699,-4.943848,0.976562,31.066895
2024-12-31 11:31:05.459211,0.034302,-0.157959,1.004761,-1.770020,-0.305176,37.414551
2024-12-31 11:31:05.467211,-0.070068,0.009644,1.118652,-2.624512,0.244141,47.851562
2024-12-31 11:31:05.475211,0.044067,0.013550,1.107910,-5.493164,1.647949,51.818848
2024-12-31 11:31:05.484211,0.098755,0.038574,1.015137,-5.554199,0.000000,49.133301
2024-12-31 11:31:05.492211,0.195068,-0.064941,0.955688,-3.906250,3.417969,44.677734
2024-12-31 11:31:05.501211,0.162354,-0.165161,0.979736,-3.601074,2.868652,51.940918
2024-12-31 11:31:05.509211,0.003418,-0.115356,1.029175,-2.929688,1.342773,59.265137
2024-12-31 11:31:05.518211,0.037476,-0.079712,1.002197,-2.136230,2.380371,59.814453
2024-12-31 11:31:05.526211,-0.093750,-0.107178,1.020630,-2.563477,4.394531,60.424805
2024-12-31 11:31:05.535211,0.096924,-0.013428,1.044067,-5.981445,2.624512,57.189941
2024-12-31 11:31:05.543211,0.175293,-0.038818,0.994995,-3.784180,4.760742,57.800293
2024-12-31 11:31:05.552211,-0.104126,-0.063965,0.943604,-5.737305,1.037598,54.931641
2024-12-31 11:31:05.560211,0.118530,-0.047485,1.011108,-4.821777,1.098633,58.288574
2024-12-31 11:31:05.569211,-0.078491,0.023438,1.003662,-5.310059,3.173828,58.349609
2024-12-31 11:31:05.577211,-0.272705,-0.124268,1.134033,-4.455566,1.342773,55.908203
2024-12-31 11:31:05.586211,0.155640,-0.026489,0.874268,-3.112793,0.366211,50.598145
2024-12-31 11:31:05.594211,-0.243530,-0.037842,1.074951,-3.906250,0.793457,44.067383
2024-12-31 11:31:05.602211,0.107422,-0.102661,0.942505,-2.441406,-0.122070,41.198730
2024-12-31 11:31:05.611211,-0.050781,-0.168091,1.067993,-2.502441,-0.610352,41.870117
2024-12-31 11:31:05.619211,-0.107300,0.013672,1.098267,-6.164551,3.723145,45.654297
2024-12-31 11:31:05.628211,-0.412598,-0.124878,1.100342,-2.380371,4.821777,43.273926
2024-12-31 11:31:05.636211,-0.054810,-0.003418,0.983276,-2.624512,1.647949,48.278809
2024-12-31 11:31:05.645211,-0.102173,-0.099365,0.987183,-5.310059,3.906250,42.785645
2024-12-31 11:31:05.653211,-0.066406,-0.024658,1.035278,-6.774902,2.319336,37.780762
2024-12-31 11:31:05.662211,-0.209839,0.060913,1.055664,-3.234863,2.014160,30.639648
2024-12-31 11:31:05.670211,-0.052979,-0.031860,0.969482,-3.356934,0.061035,27.709961
2024-12-31 11:31:05.679211,-0.144531,0.141602,0.994263,-4.699707,2.014160,28.869629
2024-12-31 11:31:05.687211,-0.113525,0.065674,0.995117,0.671387,-1.831055,24.963379
2024-12-31 11:31:05.696211,-0.209961,0.116211,1.002075,-1.953125,4.577637,18.920898
2024-12-31 11:31:05.704211,-0.270264,0.109863,0.989258,-4.272461,-1.098633,22.399902
2024-12-31 11:31:05.712211,-0.368530,0.137329,1.013550,2.075195,1.281738,20.751953
2024-12-31 11:31:05.721211,-0.255859,0.043213,0.996704,0.732422,5.981445,12.512207
2024-12-31 11:31:05.729211,-0.284180,0.031128,1.031982,-1.098633,4.638672,18.066406
2024-12-31 11:31:05.738211,-0.279053,0.083862,1.012085,-4.760742,3.234863,21.423340
2024-12-31 11:31:05.746211,-0.247681,0.062500,1.009766,0.854492,0.488281,16.601562
2024-12-31 11:31:05.755211,-0.037964,-0.003174,1.009766,-1.525879,0.671387,2.990723
2024-12-31 11:31:05.763211,-0.017578,-0.013794,1.011719,-3.479004,1.647949,-0.549316
2024-12-31 11:31:05.772211,-0.076050,-0.034180,1.011353,-4.699707,2.563477,-0.671387
2024-12-31 11:31:05.780211,-0.381348,-0.041870,1.001709,-5.432129,3.845215,4.028320
2024-12-31 11:31:05.789211,-0.174316,-0.033691,1.046509,-5.004883,3.784180,7.019043
2024-12-31 11:31:05.797211,-0.593384,-0.180176,0.949829,-1.770020,0.183105,3.662109
2024-12-31 11:31:05.806211,-0.259766,0.050903,1.051880,-1.586914,2.075195,11.291504
2024-12-31 11:31:05.814211,-0.305420,-0.135742,1.011597,-2.807617,-0.610352,7.324219
2024-12-31 11:31:05.823211,-0.284302,0.012695,1.042603,-5.432129,1.281738,2.502441
2024-12-31 11:31:05.831211,-0.302612,-0.034912,0.951904,2.685547,-0.915527,-2.990723
2024-12-31 11:31:05.839211,-0.261475,0.075195,1.077637,-5.554199,1.220703,-2.624512
2024-12-31 11:31:05.848211,-0.269653,-0.045898,0.994141,-0.549316,-1.342773,-8.544922
2024-12-31 11:31:05.856211,-0.222046,-0.095093,1.026855,-2.807617,-0.244141,-13.977051
2024-12-31 11:31:05.865211,-0.281982,0.003540,1.033203,-2.685547,2.014160,-21.057129
2024-12-31 11:31:05.873211,-0.099609,-0.100586,1.014038,-0.610352,1.647949,-24.658203
2024-12-31 11:31:05.882211,0.000000,-0.047119,1.062500,-3.662109,2.197266,-25.512695
2024-12-31 11:31:05.890211,-0.185059,0.114258,1.033203,-4.150391,0.488281,-28.137207
2024-12-31 11:31:05.899211,-0.170776,0.060547,0.999512,-5.187988,0.732422,-30.639648
2024-12-31 11:31:05.907211,-0.061890,-0.041504,1.128906,-2.380371,1.770020,-30.151367
2024-12-31 11:31:05.916211,-0.054565,0.000122,1.002197,-1.159668,1.831055,-27.832031
2024-12-31 11:31:05.924211,-0.256226,0.067261,1.026123,-5.554199,0.366211,-26.550293
2024-12-31 11:31:05.933211,-0.135254,0.057251,0.873047,-2.990723,1.464844,-28.991699
2024-12-31 11:31:05.941211,-0.138916,0.084106,1.006836,-5.065918,0.549316,-29.296875
2024-12-31 11:31:05.950211,-0.046509,0.003662,1.099487,0.366211,2.258301,-32.104492
2024-12-31 11:31:05.958211,-0.078247,0.041748,1.088135,-3.967285,0.000000,-31.066895
2024-12-31 11:31:05.966211,-0.069580,-0.004883,1.020874,-6.225586,-1.281738,-29.602051
2024-12-31 11:31:05.975211,-0.147217,0.073608,0.970215,-6.713867,0.976562,-27.587891
2024-12-31 11:31:05.983211,-0.028809,0.019653,0.950806,-5.798340,2.014160,-26.000977
2024-12-31 11:31:05.992211,0.326660,-0.070557,1.065430,-1.647949,0.976562,-23.376465
2024-12-31 11:31:06.000211,0.162964,-0.060791,1.105469,-2.441406,1.892090,-24.353027
2024-12-31 11:31:06.009211,-0.016235,-0.169556,0.975464,-4.638672,2.075195,-24.719238
2024-12-31 11:31:06.017211,0.202271,-0.172607,1.129517,-3.417969,3.967285,-18.676758
2024-12-31 11:31:06.026211,0.270752,0.108887,0.884766,-5.065918,5.126953,4.089355
2024-12-31 11:31:06.034211,0.666992,0.158813,1.195312,-1.037598,5.187988,6.164551
2024-12-31 11:31:06.043211,0.013306,-0.112061,1.054688,-3.479004,8.178711,-13.610840
2024-12-31 11:31:06.051211,0.110718,-0.060547,0.904785,-2.624512,4.333496,-15.319824
2024-12-31 11:31:06.060211,0.509033,0.201660,0.961426,-7.324219,0.976562,-12.023926
2024-12-31 11:31:06.068211,0.258789,0.001587,1.046387,-8.605957,3.356934,-22.277832
2024-12-31 11:31:06.076211,0.517334,-0.046265,1.049805,-5.981445,4.577637,-27.709961
2024-12-31 11:31:06.085211,0.165161,0.055908,0.923340,-12.207031,2.502441,-29.479980
2024-12-31 11:31:06.093211,0.507935,0.077026,1.038452,-7.507324,-0.915527,-30.578613
2024-12-31 11:31:06.102211,0.287476,-0.025391,0.995361,-6.347656,2.075195,-26.733398
2024-12-31 11:31:06.110211,0.443848,0.089844,1.032837,-4.760742,8.850098,-13.916016
2024-12-31 11:31:06.119211,0.160034,0.029907,0.987305,-5.187988,3.173828,-13.000488
2024-12-31 11:31:06.127211,0.114868,-0.028076,0.999390,-2.319336,-3.295898,-13.671875
2024-12-31 11:31:06.136211,0.032715,0.000122,1.000244,1.953125,-4.089355,-5.126953
2024-12-31 11:31:06.144211,0.262817,0.015381,1.026611,4.455566,-5.004883,-0.488281
2024-12-31 11:31:06.153211,0.109497,-0.050293,1.004883,4.455566,-0.427246,0.000000
2024-12-31 11:31:06.161211,0.181396,0.012085,0.960938,0.854492,1.892090,1.342773
2024-12-31 11:31:06.170211,0.476562,0.076782,1.007690,-2.441406,-6.530762,2.136230
2024-12-31 11:31:06.178211,0.083252,0.007080,0.974121,-5.187988,0.244141,5.004883
2024-12-31 11:31:06.187211,0.394409,0.047729,0.962891,-2.319336,-0.915527,11.108398
2024-12-31 11:31:06.195211,0.189941,0.014282,0.977417,-0.732422,3.601074,6.042480
2024-12-31 11:31:06.203211,0.005249,0.023804,1.135864,-6.591797,-3.234863,6.469727
2024-12-31 11:31:06.212211,0.258667,0.009155,0.938721,-2.319336,-1.403809,9.094238
2024-12-31 11:31:06.220211,0.157715,0.039307,1.062256,-0.976562,-3.295898,15.136719
2024-12-31 11:31:06.229211,0.239990,-0.006836,0.979126,0.061035,-0.122070,15.014648
2024-12-31 11:31:06.237211,0.033203,0.035645,1.040283,-4.150391,-1.342773,13.427734
2024-12-31 11:31:06.246211,0.084595,0.027344,1.008545,-1.586914,1.281738,15.502930
2024-12-31 11:31:06.254211,0.288086,-0.023315,0.945190,-1.525879,-0.183105,17.089844
2024-12-31 11:31:06.263211,0.018799,-0.004150,1.068359,-3.112793,-1.403809,14.160156
2024-12-31 11:31:06.271211,0.039673,-0.087891,1.071045,-2.014160,0.549316,14.648438
2024-12-31 11:31:06.280211,0.044922,-0.141235,0.945679,-2.136230,0.427246,18.066406
2024-12-31 11:31:06.288211,0.123169,-0.062500,0.962036,-2.441406,2.502441,21.362305
2024-12-31 11:31:06.297211,0.110229,-0.091309,1.015015,-1.770020,2.868652,18.676758
2024-12-31 11:31:06.305211,0.032471,-0.122925,0.991211,-1.831055,1.708984,18.310547
2024-12-31 11:31:06.313211,0.002319,0.065674,0.997314,-4.821777,-0.671387,18.676758
2024-12-31 11:31:06.322211,0.140015,-0.032837,0.989502,-0.610352,2.258301,22.949219
2024-12-31 11:31:06.330211,0.121948,-0.043091,0.955933,-2.624512,5.004883,25.878906
2024-12-31 11:31:06.339211,-0.145996,0.022705,1.013794,-8.422852,1.647949,24.658203
2024-12-31 11:31:06.347211,-0.282837,-0.149414,1.145264,-2.319336,2.563477,25.329590
2024-12-31 11:31:06.356211,-0.068115,-0.041748,1.062500,-0.610352,3.356934,19.897461
2024-12-31 11:31:06.364211,-0.012573,-0.106079,0.969482,-3.112793,-0.244141,16.174316
2024-12-31 11:31:06.373211,-0.096802,-0.007324,1.081055,-0.854492,-0.976562,14.282227
2024-12-31 11:31:06.381211,-0.065918,-0.033936,0.967529,-3.173828,1.647949,17.517090
2024-12-31 11:31:06.390211,-0.289795,-0.090942,1.048340,-3.417969,0.793457,17.761230
2024-12-31 11:31:06.398211,-0.006836,-0.090576,1.003296,-4.028320,-1.586914,16.418457
2024-12-31 11:31:06.407211,-0.003418,-0.048462,1.004517,-1.708984,2.075195,18.127441
2024-12-31 11:31:06.415211,-0.289062,-0.042480,1.091187,0.305176,0.976562,18.188477
2024-12-31 11:31:06.424211,0.020386,-0.055908,1.015137,-3.906250,-0.976562,19.409180
2024-12-31 11:31:06.432211,0.012085,-0.035522,1.022217,-4.760742,2.685547,13.183594
2024-12-31 11:31:06.440211,-0.153076,-0.063843,1.067749,-3.906250,2.563477,11.230469
2024-12-31 11:31:06.449211,-0.249023,-0.117554,1.058716,-1.525879,0.976562,11.413574
2024-12-31 11:31:06.457211,-0.031250,-0.071899,0.920898,-6.958008,1.098633,12.023926
2024-12-31 11:31:06.466211,0.005249,0.021484,0.976318,-1.464844,-1.403809,10.559082
2024-12-31 11:31:06.474211,-0.415527,-0.033936,1.085693,0.854492,0.732422,9.155273
2024-12-31 11:31:06.483211,-0.152466,-0.162720,1.028198,0.976562,0.488281,10.314941
2024-12-31 11:31:06.491211,-0.268555,0.042969,1.032104,-3.845215,0.122070,17.272949
2024-12-31 11:31:06.500211,-0.076660,0.040039,1.018188,-5.798340,0.976562,21.118164
2024-12-31 11:31:06.508211,-0.021240,0.025024,0.982788,-4.516602,3.906250,18.737793
2024-12-31 11:31:06.517211,-0.280640,-0.017212,1.005249,0.000000,1.220703,21.484375
2024-12-31 11:31:06.525211,0.028442,0.028198,0.946777,-2.136230,1.953125,30.517578
2024-12-31 11:31:06.534211,-0.532715,0.009888,1.034424,-6.042480,4.882812,26.611328
2024-12-31 11:31:06.542211,-0.461304,-0.003906,1.002563,-2.929688,1.098633,18.127441
2024-12-31 11:31:06.551211,-0.027222,0.051147,1.001709,-0.732422,1.098633,13.671875
2024-12-31 11:31:06.559211,-0.145142,0.002441,1.007690,-0.427246,0.976562,16.906738
2024-12-31 11:31:06.567211,-0.247192,0.075928,1.007446,-0.854492,-0.061035,12.756348
2024-12-31 11:31:06.576211,-0.027954,-0.003174,1.008423,-2.441406,1.342773,2.441406
2024-12-31 11:31:06.584211,-0.030518,-0.018555,1.008423,-3.417969,1.953125,-0.366211
2024-12-31 11:31:06.593211,-0.217041,-0.052246,1.015991,-3.662109,2.441406,2.380371
2024-12-31 11:31:06.601211,-0.459351,-0.026733,1.005737,-3.723145,2.563477,10.803223
2024-12-31 11:31:06.610211,-0.257812,-0.017944,0.987793,-2.624512,2.441406,11.474609
2024-12-31 11:31:06.618211,0.232544,0.004761,1.006592,-6.042480,0.610352,12.207031
2024-12-31 11:31:06.627211,-0.399170,-0.022095,0.981689,-5.737305,1.403809,12.512207
2024-12-31 11:31:06.635211,-0.026245,0.086548,1.048218,1.525879,0.671387,2.014160
2024-12-31 11:31:06.644211,-0.311279,0.019531,0.998413,-5.187988,2.197266,1.342773
2024-12-31 11:31:06.652211,-0.144897,-0.084595,0.995361,-1.770020,-2.014160,2.929688
2024-12-31 11:31:06.661211,-0.257812,-0.024170,0.985229,-6.469727,1.220703,2.502441
2024-12-31 11:31:06.669211,-0.122559,0.009155,1.021362,-1.403809,-0.549316,-0.427246
2024-12-31 11:31:06.677211,-0.193115,-0.014648,1.062012,-4.455566,0.305176,-4.211426
2024-12-31 11:31:06.686211,-0.098267,-0.011597,1.110718,-2.685547,-0.915527,-5.554199
2024-12-31 11:31:06.694211,-0.091187,0.030518,1.076782,-4.150391,0.610352,-7.507324
2024-12-31 11:31:06.703211,-0.105103,-0.025024,1.005249,-7.080078,0.732422,-9.277344
2024-12-31 11:31:06.711211,-0.131470,0.127563,1.024780,-5.004883,0.671387,-11.291504
2024-12-31 11:31:06.720211,-0.100830,-0.022217,1.031738,-1.770020,1.525879,-9.643555
2024-12-31 11:31:06.728211,-0.213257,0.023682,0.914795,-3.417969,2.197266,-5.310059
2024-12-31 11:31:06.737211,-0.000732,0.088379,1.065430,-2.197266,1.342773,-7.751465
2024-12-31 11:31:06.745211,0.040161,0.022217,1.102173,-1.953125,1.770020,-11.596680
2024-12-31 11:31:06.754211,-0.248291,-0.040405,0.968506,-2.380371,2.441406,-14.709473
2024-12-31 11:31:06.762211,-0.032471,-0.035522,0.945557,-3.417969,4.028320,-17.944336
2024-12-31 11:31:06.771211,0.021973,-0.011841,1.078735,-3.173828,1.831055,-20.202637
2024-12-31 11:31:06.779211,-0.018555,0.029907,1.080444,-1.525879,1.586914,-20.324707
2024-12-31 11:31:06.788211,0.036011,0.064209,0.974121,-3.051758,-0.183105,-20.629883
2024-12-31 11:31:06.796211,-0.149170,-0.080811,0.891846,-6.713867,1.708984,-26.000977
2024-12-31 11:31:06.804211,0.078125,-0.146606,0.908813,-1.647949,3.295898,-28.137207
2024-12-31 11:31:06.813211,0.054077,-0.097900,0.972290,0.000000,-1.220703,-29.479980
2024-12-31 11:31:06.821211,0.115234,-0.036499,1.058960,-1.647949,0.427246,-31.433105
2024-12-31 11:31:06.830211,0.114502,0.055908,1.137329,-3.723145,1.220703,-36.254883
2024-12-31 11:31:06.838211,0.067017,-0.015259,0.998047,-3.967285,-0.427246,-36.376953
2024-12-31 11:31:06.847211,-0.055542,-0.062012,1.071045,-4.516602,1.220703,-33.996582
2024-12-31 11:31:06.855211,0.244263,-0.031250,1.040649,-5.187988,2.746582,-35.339355
2024-12-31 11:31:06.864211,0.235474,-0.056274,1.056885,-6.469727,1.892090,-32.714844
2024-12-31 11:31:06.872211,0.015259,-0.075195,0.902466,-0.976562,2.441406,-32.409668
2024-12-31 11:31:06.881211,0.237305,0.008301,0.965942,-2.136230,1.953125,-32.043457
2024-12-31 11:31:06.889211,0.351685,0.028320,1.154175,-5.371094,1.525879,-28.686523
2024-12-31 11:31:06.898211,0.029175,-0.100586,0.823730,-4.394531,4.516602,-28.076172
2024-12-31 11:31:06.906211,0.328491,-0.054688,1.039673,-2.319336,-0.122070,-25.634766
2024-12-31 11:31:06.914211,-0.044922,-0.060547,0.876953,-2.258301,2.136230,-17.944336
2024-12-31 11:31:06.923211,0.047607,-0.141846,0.952148,-2.502441,4.760742,-15.075684
2024-12-31 11:31:06.931211,0.217163,-0.100830,1.019531,-1.586914,-1.098633,-11.840820
2024-12-31 11:31:06.940211,0.304443,-0.119385,0.995117,-2.380371,2.685547,-5.493164
2024-12-31 11:31:06.948211,0.215820,0.020020,1.015869,-5.920410,0.427246,-2.624512
2024-12-31 11:31:06.957211,0.306641,-0.041016,1.003052,-1.037598,2.563477,-4.028320
2024-12-31 11:31:06.965211,0.238892,-0.086914,1.001099,-0.061035,0.915527,-2.563477
2024-12-31 11:31:06.974211,0.033569,-0.018188,1.001709,-1.647949,0.305176,-0.488281
2024-12-31 11:31:06.982211,0.123901,0.007446,1.003052,-1.281738,-0.671387,0.000000
2024-12-31 11:31:06.991211,0.438599,0.051758,1.008423,-2.197266,-0.488281,4.638672
2024-12-31 11:31:06.999211,0.337769,0.096191,1.010010,-4.882812,-0.427246,7.202148
2024-12-31 11:31:07.008211,0.393066,-0.017700,0.976196,0.366211,-1.037598,10.314941
2024-12-31 11:31:07.016211,0.391968,0.001221,0.956421,-4.028320,1.647949,14.465332
2024-12-31 11:31:07.025211,0.639526,0.053589,0.877197,-3.906250,-0.427246,17.150879
2024-12-31 11:31:07.033211,0.076538,-0.086670,1.054688,-3.662109,3.479004,16.113281
2024-12-31 11:31:07.041211,0.280151,-0.047729,0.919067,-2.014160,1.525879,25.268555
2024-12-31 11:31:07.050211,0.116455,-0.123779,0.998413,-0.671387,1.525879,23.803711
2024-12-31 11:31:07.058211,0.156128,-0.079224,1.054565,-2.502441,0.305176,24.780273
2024-12-31 11:31:07.067211,0.083252,0.018188,1.042603,-3.967285,1.892090,26.977539
2024-12-31 11:31:07.075211,0.321655,0.024292,0.937134,-3.051758,0.549316,27.099609
2024-12-31 11:31:07.084211,0.265869,-0.003784,1.014771,-2.075195,2.685547,25.939941
2024-12-31 11:31:07.092211,0.018921,0.106079,1.044312,-4.150391,0.122070,28.137207
2024-12-31 11:31:07.101211,0.140259,-0.054688,0.910278,-3.967285,0.305176,28.747559
2024-12-31 11:31:07.109211,0.066284,0.095337,1.066284,-3.540039,1.159668,28.381348
2024-12-31 11:31:07.118211,0.138794,0.091919,1.053589,-6.469727,-0.732422,18.249512
2024-12-31 11:31:07.126211,-0.051880,0.037476,1.056274,-3.234863,2.136230,11.413574
2024-12-31 11:31:07.135211,0.192017,0.039429,1.081787,-3.112793,0.915527,10.864258
2024-12-31 11:31:07.143211,-0.088745,-0.015625,0.902100,-0.793457,2.624512,7.385254
2024-12-31 11:31:07.152211,0.096069,0.026123,1.069580,-3.662109,2.136230,5.615234
2024-12-31 11:31:07.160211,-0.028687,-0.076660,1.069458,-2.197266,3.234863,8.422852
2024-12-31 11:31:07.168211,-0.214355,-0.046997,0.943970,-0.915527,0.854492,6.713867
2024-12-31 11:31:07.177211,-0.012451,-0.088135,1.021484,-3.479004,-0.244141,4.394531
2024-12-31 11:31:07.185211,-0.055176,-0.016602,1.026245,-1.525879,1.403809,6.042480
2024-12-31 11:31:07.194211,0.149170,0.051392,0.959961,-2.319336,-1.037598,7.568359
2024-12-31 11:31:07.202211,0.000977,0.047485,1.068359,-0.915527,1.037598,5.310059
2024-12-31 11:31:07.211211,-0.177734,-0.046997,1.013062,-0.488281,2.380371,6.042480
2024-12-31 11:31:07.219211,-0.179077,0.061768,1.031494,-2.136230,0.488281,6.469727
2024-12-31 11:31:07.228211,-0.053467,0.037842,0.974854,-2.197266,-0.976562,3.723145
2024-12-31 11:31:07.236211,0.066284,0.076294,1.041992,-2.319336,0.915527,-0.366211
2024-12-31 11:31:07.245211,0.061646,0.058960,0.960083,-2.197266,1.953125,-2.563477
2024-12-31 11:31:07.253211,-0.146484,0.026123,1.044800,-3.479004,5.371094,-3.479004
2024-12-31 11:31:07.262211,0.115967,0.053467,0.996094,-2.685547,2.197266,-2.441406
2024-12-31 11:31:07.270211,-0.092773,-0.000488,0.947388,-0.122070,3.112793,-0.549316
2024-12-31 11:31:07.278211,-0.087402,-0.066406,1.036255,1.281738,1.037598,2.075195
2024-12-31 11:31:07.287211,0.016724,0.047729,0.999512,-1.525879,1.342773,0.000000
2024-12-31 11:31:07.295211,-0.478394,0.076172,1.085693,-4.150391,-0.854492,2.807617
2024-12-31 11:31:07.304211,-0.103516,0.016602,0.982788,-3.234863,0.610352,5.187988
2024-12-31 11:31:07.312211,-0.004272,0.068848,1.057129,-5.493164,2.136230,6.591797
2024-12-31 11:31:07.321211,0.001831,-0.096680,0.968994,1.098633,0.366211,7.812500
2024-12-31 11:31:07.329211,-0.127075,-0.065918,0.999146,-2.075195,1.586914,11.291504
2024-12-31 11:31:07.338211,-0.173462,-0.073120,0.977295,-2.258301,2.502441,24.597168
2024-12-31 11:31:07.346211,-0.098633,-0.061646,0.999756,-2.563477,3.173828,26.245117
2024-12-31 11:31:07.355211,-0.076050,-0.086182,0.968506,-2.868652,1.220703,22.827148
2024-12-31 11:31:07.363211,0.078613,-0.035278,0.974976,-1.770020,-2.014160,9.399414
2024-12-31 11:31:07.372211,-0.108154,-0.043823,1.019043,-4.638672,3.295898,10.314941
2024-12-31 11:31:07.380211,-0.159424,-0.001343,1.018921,-3.234863,2.990723,17.761230
2024-12-31 11:31:07.389211,-0.286743,-0.046021,0.994995,-2.258301,0.915527,14.160156
2024-12-31 11:31:07.397211,-0.397705,-0.036621,1.031982,-6.652832,0.854492,9.643555
2024-12-31 11:31:07.405211,-0.181885,0.005615,1.007324,-3.601074,-0.793457,12.023926
2024-12-31 11:31:07.414211,-0.043457,-0.005249,1.011719,-3.356934,0.915527,4.699707
2024-12-31 11:31:07.422211,-0.015015,-0.005981,1.017700,-4.760742,2.685547,-0.244141
2024-12-31 11:31:07.431211,-0.446167,-0.051025,1.007935,-5.249023,4.028320,-1.892090
2024-12-31 11:31:07.439211,-0.765259,-0.124023,1.000488,-6.042480,5.004883,-8.239746
2024-12-31 11:31:07.448211,-0.244141,-0.031372,0.999146,-3.173828,1.647949,-13.977051
2024-12-31 11:31:07.456211,-0.343018,-0.171021,0.962646,-4.699707,-1.342773,-8.728027
2024-12-31 11:31:07.465211,-0.252441,0.019287,1.021118,-3.417969,-0.061035,-4.821777
2024-12-31 11:31:07.473211,-0.270752,-0.024536,0.956787,-3.112793,0.976562,-4.150391
2024-12-31 11:31:07.482211,-0.223999,-0.062500,0.963013,-4.089355,-0.793457,-6.347656
2024-12-31 11:31:07.490211,-0.156982,-0.082031,0.986450,-3.784180,-1.281738,-10.131836
2024-12-31 11:31:07.499211,-0.093994,-0.040649,1.000732,-5.065918,-1.525879,-14.099121
2024-12-31 11:31:07.507211,-0.155273,0.076294,0.987793,-3.356934,0.610352,-18.310547
2024-12-31 11:31:07.516211,-0.108398,-0.036987,1.049683,-2.197266,0.000000,-24.291992
2024-12-31 11:31:07.524211,-0.154785,-0.040283,0.933228,-0.427246,0.122070,-27.648926
2024-12-31 11:31:07.532211,-0.106567,-0.025513,1.001221,-2.990723,-2.624512,-25.451660
2024-12-31 11:31:07.541211,-0.145874,-0.128052,1.022705,-3.173828,-0.488281,-26.794434
2024-12-31 11:31:07.549211,-0.104736,-0.014893,0.944458,-2.807617,-1.708984,-28.564453
2024-12-31 11:31:07.558211,-0.018677,-0.026611,0.998291,-3.479004,0.305176,-28.869629
2024-12-31 11:31:07.566211,0.062622,-0.043457,1.085693,-1.647949,0.000000,-28.869629
2024-12-31 11:31:07.575211,0.002808,-0.029419,1.142334,-6.469727,1.770020,-28.808594
2024-12-31 11:31:07.583211,0.045044,0.066650,1.039185,-5.920410,-0.061035,-31.188965
2024-12-31 11:31:07.592211,-0.028320,-0.049561,0.944092,-4.028320,0.610352,-34.301758
2024-12-31 11:31:07.600211,0.031128,0.003540,0.999390,-2.197266,2.319336,-33.386230
2024-12-31 11:31:07.609211,0.006836,-0.012085,1.052490,-3.784180,3.723145,-30.639648
2024-12-31 11:31:07.617211,-0.035522,0.030884,0.909912,-5.615234,0.244141,-29.174805
2024-12-31 11:31:07.626211,0.136963,0.048706,1.051147,-7.141113,2.441406,-28.381348
2024-12-31 11:31:07.634211,0.036621,0.010864,1.049927,-6.652832,0.122070,-31.921387
2024-12-31 11:31:07.642211,0.147095,-0.047485,1.031616,-1.220703,2.075195,-36.804199
2024-12-31 11:31:07.651211,0.082642,-0.001953,1.007690,-6.042480,0.793457,-36.743164
2024-12-31 11:31:07.659211,0.163330,-0.077271,1.058838,-3.234863,-0.549316,-32.409668
2024-12-31 11:31:07.668211,0.135132,-0.043091,1.033447,-5.859375,0.549316,-28.137207
2024-12-31 11:31:07.676211,0.107910,0.002686,0.947021,-5.004883,2.197266,-25.573730
2024-12-31 11:31:07.685211,0.106201,-0.050171,1.014404,-4.333496,3.234863,-22.216797
2024-12-31 11:31:07.693211,0.092896,-0.047485,1.118286,-7.446289,2.136230,-19.226074
2024-12-31 11:31:07.702211,0.109009,-0.089722,0.914185,-5.981445,6.713867,-17.028809
2024-12-31 11:31:07.710211,0.175781,-0.046265,1.029419,-11.413574,5.187988,-14.587402
2024-12-31 11:31:07.719211,0.156616,-0.037109,1.010498,-4.333496,2.807617,-12.451172
2024-12-31 11:31:07.727211,0.091187,-0.023682,0.944214,-4.333496,2.807617,-4.089355
2024-12-31 11:31:07.736211,0.171387,0.050659,0.996094,-5.920410,4.333496,0.305176
2024-12-31 11:31:07.744211,0.245728,-0.009399,1.037842,0.549316,2.929688,-0.244141
2024-12-31 11:31:07.753211,0.203613,0.018066,0.968506,-1.464844,8.056641,-0.976562
2024-12-31 11:31:07.761211,0.151367,0.020874,1.002686,-6.835938,-0.122070,2.807617
2024-12-31 11:31:07.769211,0.343872,0.102295,1.002930,-5.249023,6.042480,5.187988
2024-12-31 11:31:07.778211,0.125854,0.048340,0.998169,0.244141,2.990723,6.347656
2024-12-31 11:31:07.786211,0.041870,0.017334,0.997925,-1.037598,-0.244141,6.042480
2024-12-31 11:31:07.795211,0.163574,-0.063354,1.018921,2.441406,-3.295898,4.699707
2024-12-31 11:31:07.803211,0.255737,-0.026611,1.005737,-0.305176,-3.051758,8.300781
2024-12-31 11:31:07.812211,0.138794,-0.037231,1.058838,0.061035,-4.211426,15.930176
2024-12-31 11:31:07.820211,0.207031,0.011597,0.983154,1.342773,-2.868652,14.160156
2024-12-31 11:31:07.829211,0.108643,0.004028,1.009888,0.488281,-2.624512,8.850098
2024-12-31 11:31:07.837211,0.419800,0.003540,0.939575,-2.624512,-0.244141,11.169434
2024-12-31 11:31:07.846211,0.203125,-0.061523,1.044922,-4.821777,2.502441,14.709473
2024-12-31 11:31:07.854211,0.244141,0.025024,1.005005,-3.967285,-0.305176,13.061523
2024-12-31 11:31:07.863211,0.298096,-0.060059,1.008301,-4.272461,-0.183105,8.728027
2024-12-31 11:31:07.871211,0.356079,-0.023560,0.984009,-3.112793,-1.342773,9.155273
2024-12-31 11:31:07.879211,0.150879,0.023315,1.049683,-6.408691,1.098633,5.920410
2024-12-31 11:31:07.888211,-0.092041,0.091675,1.010620,-3.601074,0.793457,4.943848
2024-12-31 11:31:07.896211,0.007080,0.003052,1.021973,-1.159668,0.732422,7.873535
2024-12-31 11:31:07.905211,0.064941,-0.008545,1.009521,0.854492,-0.915527,15.502930
2024-12-31 11:31:07.913211,0.024658,0.008545,0.986206,-0.427246,0.854492,21.301270
2024-12-31 11:31:07.922211,0.100708,-0.046875,1.035522,1.708984,1.403809,19.958496
2024-12-31 11:31:07.930211,0.322876,0.041016,0.881348,-2.502441,3.173828,18.066406
2024-12-31 11:31:07.939211,0.105591,-0.113159,0.953735,-4.760742,2.441406,14.099121
2024-12-31 11:31:07.947211,-0.079102,-0.043335,1.137817,-1.098633,1.281738,10.314941
2024-12-31 11:31:07.956211,0.187500,-0.063843,0.899414,-4.882812,2.136230,6.835938
2024-12-31 11:31:07.964211,0.058960,-0.103882,0.927612,-3.173828,1.342773,6.652832
2024-12-31 11:31:07.973211,0.040283,-0.056885,1.035278,-2.258301,0.793457,7.263184
2024-12-31 11:31:07.981211,-0.025513,-0.010986,1.049683,-3.112793,1.464844,4.577637
2024-12-31 11:31:07.990211,-0.082642,0.062500,1.078125,-1.647949,0.610352,-0.488281
2024-12-31 11:31:07.998211,0.149292,0.121460,0.958496,-0.732422,-0.671387,-7.385254
2024-12-31 11:31:08.006211,0.082520,-0.051025,0.919434,-0.610352,0.976562,-13.122559
2024-12-31 11:31:08.015211,-0.025513,-0.013306,1.006226,-2.746582,0.183105,-15.502930
2024-12-31 11:31:08.023211,-0.133301,0.055298,1.056152,-7.202148,1.037598,-8.483887
2024-12-31 11:31:08.032211,-0.129150,-0.122070,0.891968,-0.549316,0.061035,-1.953125
2024-12-31 11:31:08.040211,-0.568115,0.098511,1.043579,-4.150391,0.488281,-0.427246
2024-12-31 11:31:08.049211,-0.447388,0.033447,1.068115,-2.258301,-0.122070,-21.301270
2024-12-31 11:31:08.057211,0.363892,-0.117432,1.006958,0.305176,-2.319336,-46.875000
2024-12-31 11:31:08.066211,-0.105347,0.034302,1.054932,-6.896973,-2.197266,-31.005859
2024-12-31 11:31:08.074211,0.022461,-0.117554,0.962524,-2.807617,1.342773,-11.047363
2024-12-31 11:31:08.083211,0.017456,-0.055176,0.991333,-0.366211,1.770020,10.925293
2024-12-31 11:31:08.091211,-0.067017,-0.048828,1.103149,0.427246,-0.183105,19.836426
2024-12-31 11:31:08.100211,0.228149,-0.064453,1.032837,-5.737305,0.183105,20.874023
2024-12-31 11:31:08.108211,-0.357300,0.024658,1.007446,-7.263184,0.488281,24.597168
2024-12-31 11:31:08.117211,-0.032104,-0.094727,1.022827,-3.906250,-0.793457,31.616211
2024-12-31 11:31:08.125211,-0.517456,-0.109863,0.955444,-3.295898,1.464844,34.545898
2024-12-31 11:31:08.133211,0.089233,0.080200,1.012451,-3.784180,0.854492,32.531738
2024-12-31 11:31:08.142211,-0.224365,0.051758,0.938477,-6.591797,-0.244141,22.644043
2024-12-31 11:31:08.150211,-0.509399,0.043701,1.024780,-1.525879,2.990723,18.981934
2024-12-31 11:31:08.159211,-0.522095,0.018921,0.987671,-4.760742,2.075195,27.526855
2024-12-31 11:31:08.167211,-0.021240,-0.023560,1.017090,0.366211,5.187988,40.405273
2024-12-31 11:31:08.176211,-0.189209,-0.006958,0.994385,-1.831055,2.624512,37.414551
2024-12-31 11:31:08.184211,-0.316528,-0.091675,1.000977,-1.525879,-1.525879,24.108887
2024-12-31 11:31:08.193211,-0.086182,-0.069946,1.007812,-2.441406,0.854492,20.385742
2024-12-31 11:31:08.201211,-0.040405,-0.028320,1.010498,-4.577637,1.770020,9.948730
2024-12-31 11:31:08.210211,-0.146851,0.031494,1.011841,-6.103516,2.563477,4.821777
2024-12-31 11:31:08.218211,-0.493896,0.091309,0.999634,-7.995605,3.051758,2.746582
2024-12-31 11:31:08.227211,-0.358643,-0.004639,0.998779,-7.812500,4.333496,5.920410
2024-12-31 11:31:08.235211,0.173950,-0.008179,1.058228,-6.652832,3.051758,10.131836
2024-12-31 11:31:08.244211,-0.235474,-0.010132,1.050537,-3.417969,-1.770020,-0.610352
2024-12-31 11:31:08.252211,-0.188477,-0.038330,1.060425,-2.563477,0.000000,12.817383
2024-12-31 11:31:08.260211,-0.184937,0.007690,0.983643,-4.028320,1.647949,18.798828
2024-12-31 11:31:08.269211,-0.317017,-0.041138,0.967407,-3.540039,0.915527,13.366699
2024-12-31 11:31:08.277211,-0.166504,-0.053589,0.993652,-2.319336,2.868652,15.869141
2024-12-31 11:31:08.286211,-0.298950,-0.019043,1.029785,-3.112793,1.953125,7.019043
2024-12-31 11:31:08.294211,-0.109131,0.028442,1.043579,-5.615234,3.173828,0.427246
2024-12-31 11:31:08.303211,-0.203369,-0.032104,1.026367,-1.525879,1.037598,-6.713867
2024-12-31 11:31:08.311211,-0.168701,-0.041016,1.048828,-6.103516,0.305176,-9.521484
2024-12-31 11:31:08.320211,-0.142822,0.056030,1.028931,-2.929688,0.305176,-14.404297
2024-12-31 11:31:08.328211,-0.184326,-0.000366,1.045532,-4.699707,-0.854492,-15.808105
2024-12-31 11:31:08.337211,-0.119507,0.036255,1.011719,-7.324219,1.098633,-17.395020
2024-12-31 11:31:08.345211,-0.156860,0.017700,0.984375,-6.042480,0.305176,-18.493652
2024-12-31 11:31:08.354211,-0.176025,0.006348,0.965942,-3.967285,1.831055,-16.967773
2024-12-31 11:31:08.362211,-0.124878,-0.019165,0.958008,-5.920410,-0.854492,-22.277832
2024-12-31 11:31:08.370211,-0.106934,-0.065186,1.058960,-2.075195,-2.990723,-26.733398
2024-12-31 11:31:08.379211,-0.121704,-0.035522,1.054565,2.197266,-1.525879,-27.465820
2024-12-31 11:31:08.387211,-0.084106,0.031982,0.980713,1.098633,-0.305176,-26.428223
2024-12-31 11:31:08.396211,-0.129028,0.063232,1.050659,2.990723,1.892090,-27.099609
2024-12-31 11:31:08.404211,-0.102661,0.035156,1.027466,-0.549316,-0.061035,-29.052734
2024-12-31 11:31:08.413211,-0.008423,-0.033569,1.155029,-6.774902,3.784180,-27.160645
2024-12-31 11:31:08.421211,-0.020142,-0.033936,0.994629,-3.845215,7.202148,-30.761719
2024-12-31 11:31:08.430211,-0.014648,-0.044312,1.050171,-5.187988,-0.427246,-39.855957
2024-12-31 11:31:08.438211,-0.012207,-0.102661,0.987305,-8.789062,-0.366211,-39.184570
2024-12-31 11:31:08.447211,-0.072876,-0.128052,1.020508,-6.042480,-2.075195,-35.888672
2024-12-31 11:31:08.455211,0.070312,-0.062744,1.013794,-4.333496,0.915527,-30.517578
2024-12-31 11:31:08.464211,0.139038,-0.072754,1.140625,0.671387,-0.671387,-30.395508
2024-12-31 11:31:08.472211,0.177124,0.027100,1.002319,-1.464844,-1.098633,-34.362793
2024-12-31 11:31:08.481211,0.267456,0.036499,1.054321,-4.333496,-0.366211,-34.912109
2024-12-31 11:31:08.489211,0.207642,-0.034058,1.062500,-2.746582,-0.976562,-30.517578
2024-12-31 11:31:08.497211,0.201660,-0.006714,1.011963,-3.356934,0.610352,-26.611328
2024-12-31 11:31:08.506211,0.258667,0.048462,1.073242,2.075195,5.310059,-28.381348
2024-12-31 11:31:08.514211,0.148560,-0.006348,0.967285,-0.915527,6.530762,-27.770996
2024-12-31 11:31:08.523211,0.156250,-0.028076,0.921143,-2.624512,4.028320,-26.000977
2024-12-31 11:31:08.531211,0.164917,-0.081909,0.972900,-3.356934,3.356934,-25.329590
2024-12-31 11:31:08.540211,0.257812,0.023438,1.001587,-2.807617,2.441406,-25.634766
2024-12-31 11:31:08.548211,0.582520,0.144653,1.097900,-1.281738,1.647949,-27.221680
2024-12-31 11:31:08.557211,0.023315,-0.102051,0.968750,-1.647949,2.563477,-30.273438
2024-12-31 11:31:08.565211,0.285889,-0.109131,1.089233,-3.173828,-0.183105,-15.747070
2024-12-31 11:31:08.574211,0.313721,0.017578,1.078369,-3.540039,2.502441,-5.676270
2024-12-31 11:31:08.582211,0.255493,-0.042847,1.046875,-3.051758,2.929688,-7.446289
2024-12-31 11:31:08.591211,0.292114,0.052490,1.024414,-5.004883,2.197266,-4.760742
2024-12-31 11:31:08.599211,0.195190,0.005981,1.000732,-4.455566,2.197266,-4.821777
2024-12-31 11:31:08.607211,0.221191,-0.043457,1.015259,-1.770020,1.159668,-7.324219
2024-12-31 11:31:08.616211,0.146484,0.004395,0.992188,-4.333496,1.037598,-4.516602
2024-12-31 11:31:08.624211,0.211914,-0.031372,1.006592,-3.967285,2.502441,-0.671387
2024-12-31 11:31:08.633211,0.042603,0.000366,1.001343,-2.502441,0.671387,0.122070
2024-12-31 11:31:08.641211,0.166504,0.013550,1.012939,-0.610352,-0.610352,2.502441
2024-12-31 11:31:08.650211,0.471558,0.024536,0.988037,0.610352,-1.281738,12.268066
2024-12-31 11:31:08.658211,0.147095,0.004272,1.035645,0.183105,-0.671387,13.732910
2024-12-31 11:31:08.667211,0.196777,-0.034668,0.999634,-4.455566,0.671387,9.704590
2024-12-31 11:31:08.675211,0.286377,0.014893,0.943359,-3.051758,0.793457,9.765625
2024-12-31 11:31:08.684211,0.119751,-0.087646,1.057861,-3.173828,0.671387,12.573242
2024-12-31 11:31:08.692211,0.133911,-0.044556,1.107300,-0.366211,-0.854492,15.563965
2024-12-31 11:31:08.701211,0.058472,-0.045288,0.994385,-1.953125,-0.305176,17.395020
2024-12-31 11:31:08.709211,0.331787,-0.044800,0.946289,-2.380371,1.831055,20.874023
2024-12-31 11:31:08.718211,0.312744,-0.136108,0.930664,-3.295898,-0.183105,21.301270
2024-12-31 11:31:08.726211,0.199097,-0.064697,0.983398,-3.662109,-1.281738,24.719238
2024-12-31 11:31:08.734211,0.142456,-0.016113,0.915894,-2.136230,-1.220703,29.541016
2024-12-31 11:31:08.743211,0.244385,-0.041992,0.888306,0.976562,-1.464844,30.822754
2024-12-31 11:31:08.751211,0.175293,-0.087891,0.992676,-3.906250,-0.488281,27.954102
2024-12-31 11:31:08.760211,0.101196,0.061279,1.077515,-3.295898,-1.464844,29.907227
2024-12-31 11:31:08.768211,0.202637,0.022705,1.006958,-2.258301,-0.671387,29.541016
2024-12-31 11:31:08.777211,0.035645,0.080078,1.019409,-0.061035,0.183105,31.066895
2024-12-31 11:31:08.785211,-0.159180,-0.017944,1.120972,-1.708984,3.540039,32.897949
2024-12-31 11:31:08.794211,0.214355,-0.047485,1.039185,-0.305176,4.211426,34.912109
2024-12-31 11:31:08.802211,0.090332,-0.241821,0.856689,-2.319336,3.845215,26.489258
2024-12-31 11:31:08.811211,-0.118774,-0.079956,1.059937,-2.685547,4.394531,21.362305
2024-12-31 11:31:08.819211,-0.018066,-0.111938,1.043457,-1.464844,2.990723,21.362305
2024-12-31 11:31:08.828211,-0.100098,-0.070557,1.041626,-2.807617,1.586914,24.841309
2024-12-31 11:31:08.836211,0.036987,-0.009521,1.075195,-4.394531,1.525879,27.465820
2024-12-31 11:31:08.845211,-0.035522,-0.033081,1.070679,-3.540039,1.708984,25.085449
2024-12-31 11:31:08.853211,-0.015137,-0.055908,1.092163,-1.037598,3.112793,24.047852
2024-12-31 11:31:08.861211,0.053955,-0.096924,1.079712,-2.868652,1.586914,27.954102
2024-12-31 11:31:08.870211,-0.047607,0.006714,1.089233,-2.441406,-0.183105,29.663086
2024-12-31 11:31:08.878211,0.069946,0.094849,1.002930,-2.380371,2.685547,22.766113
2024-12-31 11:31:08.887211,0.010864,-0.103638,1.013062,-2.868652,1.525879,26.916504
2024-12-31 11:31:08.895211,-0.056519,-0.039795,1.016846,-4.150391,2.563477,32.592773
2024-12-31 11:31:08.904211,0.026733,-0.065674,0.944092,-3.295898,5.004883,31.188965
2024-12-31 11:31:08.912211,-0.080933,-0.166382,1.015381,-3.540039,2.563477,30.151367
2024-12-31 11:31:08.921211,-0.046387,-0.121216,1.038086,-4.333496,4.760742,37.658691
2024-12-31 11:31:08.929211,-0.154297,-0.018799,1.010864,-3.601074,-0.305176,46.203613
2024-12-31 11:31:08.938211,0.032349,0.045288,0.982056,-3.112793,-1.037598,50.476074
2024-12-31 11:31:08.946211,-0.038330,-0.030640,0.929688,-4.394531,0.671387,52.124023
2024-12-31 11:31:08.955211,-0.241577,-0.013672,0.951660,-1.708984,2.685547,45.349121
2024-12-31 11:31:08.963211,-0.382080,0.117310,1.109497,0.976562,1.770020,40.466309
2024-12-31 11:31:08.971211,-0.228027,-0.056763,0.952271,-1.647949,1.770020,35.583496
2024-12-31 11:31:08.980211,-0.291016,0.113770,1.073486,-2.136230,1.770020,34.057617
2024-12-31 11:31:08.988211,-0.372192,-0.187012,0.939941,-0.427246,1.098633,35.461426
2024-12-31 11:31:08.997211,-0.442505,0.032593,1.042969,-2.075195,5.187988,41.015625
2024-12-31 11:31:09.005211,-0.174805,0.013062,1.010620,-2.929688,1.403809,36.621094
2024-12-31 11:31:09.014211,-0.294067,0.022461,0.979004,-3.295898,3.173828,27.526855
2024-12-31 11:31:09.022211,-0.460815,-0.015259,1.011353,-1.770020,2.075195,19.104004
2024-12-31 11:31:09.031211,-0.425781,0.106445,1.019165,0.793457,-0.122070,9.704590
2024-12-31 11:31:09.039211,-0.138062,0.055176,0.999512,-2.319336,0.244141,0.183105
2024-12-31 11:31:09.048211,-0.212280,0.088745,1.010986,-4.882812,0.976562,-3.295898
2024-12-31 11:31:09.056211,-0.073608,-0.011230,1.014648,-5.065918,3.051758,-3.784180
2024-12-31 11:31:09.065211,-0.455566,-0.084473,1.006592,-4.699707,5.065918,-7.324219
2024-12-31 11:31:09.073211,-0.245850,0.115601,1.035156,-5.432129,6.225586,-15.075684
2024-12-31 11:31:09.082211,-0.293335,-0.055054,1.016968,-1.403809,1.586914,-17.639160
2024-12-31 11:31:09.090211,-0.165894,0.037109,1.046631,-0.122070,2.380371,-16.235352
2024-12-31 11:31:09.098211,-0.184204,0.069336,1.013428,-2.014160,0.549316,-16.418457
2024-12-31 11:31:09.107211,-0.268433,0.044556,0.987549,-2.868652,0.671387,-18.554688
2024-12-31 11:31:09.115211,-0.139648,0.058228,1.077393,-0.854492,1.098633,-21.728516
2024-12-31 11:31:09.124211,-0.187378,-0.014648,1.021484,-6.164551,-2.258301,-21.118164
2024-12-31 11:31:09.132211,-0.157104,0.010986,1.012939,-5.004883,-3.234863,-22.094727
2024-12-31 11:31:09.141211,-0.066040,-0.095215,1.022827,-4.150391,-4.028320,-21.667480
2024-12-31 11:31:09.149211,-0.124023,-0.093384,1.042114,-6.591797,0.366211,-20.202637
2024-12-31 11:31:09.158211,-0.019287,-0.078125,1.100708,-2.685547,-1.098633,-23.498535
2024-12-31 11:31:09.166211,-0.013306,-0.093018,1.109497,-5.310059,1.220703,-23.986816
2024-12-31 11:31:09.175211,-0.050415,-0.036865,1.100342,-2.868652,-0.793457,-24.353027
2024-12-31 11:31:09.183211,-0.096802,-0.042847,0.965576,-2.197266,-3.051758,-20.629883
2024-12-31 11:31:09.192211,-0.104980,-0.050171,1.049561,-3.234863,-0.732422,-17.456055
2024-12-31 11:31:09.200211,-0.058960,0.028198,1.091064,-2.868652,2.380371,-18.981934
2024-12-31 11:31:09.209211,-0.115234,0.008301,0.958862,-2.685547,-0.183105,-21.423340
2024-12-31 11:31:09.217211,-0.003296,0.060303,1.059326,-4.516602,0.183105,-22.033691
2024-12-31 11:31:09.225211,-0.042358,-0.021240,1.030762,-5.615234,0.305176,-25.024414
2024-12-31 11:31:09.234211,-0.055420,0.006104,1.049316,-4.333496,0.732422,-27.160645
2024-12-31 11:31:09.242211,-0.123291,0.031982,1.032104,-2.624512,-0.061035,-26.794434
2024-12-31 11:31:09.251211,-0.114990,0.024780,0.987183,-3.662109,-0.671387,-25.146484
2024-12-31 11:31:09.259211,-0.024414,-0.065552,1.058960,-2.441406,0.671387,-28.686523
2024-12-31 11:31:09.268211,-0.042603,0.009644,0.974976,-3.601074,2.258301,-30.883789
2024-12-31 11:31:09.276211,-0.010498,0.038452,1.096191,-3.967285,0.793457,-34.484863
2024-12-31 11:31:09.285211,0.058960,-0.029785,1.064209,-3.417969,1.159668,-36.010742
2024-12-31 11:31:09.293211,-0.000610,-0.077759,1.057373,-4.211426,1.892090,-34.790039
2024-12-31 11:31:09.302211,0.057373,-0.079102,1.096436,-6.347656,0.976562,-34.912109
2024-12-31 11:31:09.310211,0.096436,-0.113647,1.083008,-2.929688,0.854492,-33.142090
2024-12-31 11:31:09.319211,0.094360,-0.054932,1.003906,-1.770020,-0.671387,-32.348633
2024-12-31 11:31:09.327211,0.118164,0.029663,0.997437,-2.990723,-0.915527,-31.311035
2024-12-31 11:31:09.335211,0.061401,-0.012329,1.048950,-2.502441,1.708984,-32.043457
2024-12-31 11:31:09.344211,0.033569,-0.019775,0.956787,-2.258301,1.708984,-30.334473
2024-12-31 11:31:09.352211,0.073975,0.062134,0.969971,-5.493164,0.793457,-26.000977
2024-12-31 11:31:09.361211,0.148926,0.029053,1.003418,-7.629395,0.732422,-22.766113
2024-12-31 11:31:09.369211,0.151733,-0.014038,0.988525,-2.807617,0.732422,-20.874023
2024-12-31 11:31:09.378211,0.161743,0.006348,0.946167,-5.859375,1.647949,-19.470215
2024-12-31 11:31:09.386211,0.232300,0.010010,1.051270,-6.286621,2.441406,-19.592285
2024-12-31 11:31:09.395211,0.140991,-0.082642,0.990234,-5.432129,2.868652,-15.747070
2024-12-31 11:31:09.403211,0.323120,0.070557,1.039429,-2.197266,0.854492,-11.718750
2024-12-31 11:31:09.412211,0.165039,-0.031372,0.972290,-4.699707,4.821777,-10.253906
2024-12-31 11:31:09.420211,0.140747,-0.057007,0.996094,-3.173828,0.915527,-8.422852
2024-12-31 11:31:09.429211,0.175903,0.041626,1.023438,-3.906250,2.197266,-5.493164
2024-12-31 11:31:09.437211,0.296387,0.055664,1.035522,-2.868652,2.624512,-5.371094
2024-12-31 11:31:09.446211,0.054443,-0.040527,0.986084,-1.647949,4.699707,-5.798340
2024-12-31 11:31:09.454211,0.376221,0.065186,1.045898,-1.708984,-0.244141,-3.967285
2024-12-31 11:31:09.462211,0.107300,-0.012085,0.999756,-1.953125,2.075195,-4.089355
2024-12-31 11:31:09.471211,0.114746,-0.025146,1.001099,-1.892090,2.319336,-1.647949
2024-12-31 11:31:09.479211,0.057739,-0.037598,1.004272,-0.183105,-0.244141,0.305176
2024-12-31 11:31:09.488211,0.097046,0.036865,1.008667,0.793457,-2.136230,4.211426
2024-12-31 11:31:09.496211,0.279297,0.104614,0.996582,-0.244141,-2.258301,13.000488
2024-12-31 11:31:09.505211,0.074829,0.027832,1.008545,-5.004883,-1.220703,14.221191
2024-12-31 11:31:09.513211,0.446533,0.043823,0.984619,-0.915527,-1.403809,13.671875
2024-12-31 11:31:09.522211,0.058105,-0.079224,0.995850,-7.812500,1.403809,6.896973
2024-12-31 11:31:09.530211,-0.017822,-0.087524,1.013794,-1.770020,1.647949,5.126953
2024-12-31 11:31:09.539211,0.361938,0.178589,1.024902,-0.061035,-1.525879,7.202148
2024-12-31 11:31:09.547211,0.190674,0.085449,1.026733,-4.150391,1.159668,8.605957
2024-12-31 11:31:09.556211,0.239136,-0.083130,0.949951,-5.249023,-0.732422,10.253906
2024-12-31 11:31:09.564211,0.376587,0.099487,1.010376,2.075195,2.319336,14.709473
2024-12-31 11:31:09.572211,0.196167,-0.023804,0.910645,-0.366211,4.333496,10.681152
2024-12-31 11:31:09.581211,0.047974,-0.023804,1.023926,-4.943848,-0.793457,3.051758
2024-12-31 11:31:09.589211,0.123901,-0.030273,0.987427,-6.164551,-0.366211,8.422852
2024-12-31 11:31:09.598211,0.264648,0.010498,0.949585,-1.098633,1.281738,11.962891
2024-12-31 11:31:09.606211,0.050781,0.077026,1.050293,-1.953125,1.464844,8.422852
2024-12-31 11:31:09.615211,0.041870,0.065918,1.060791,-5.676270,0.610352,-0.488281
2024-12-31 11:31:09.623211,0.057007,-0.022217,1.091064,-5.004883,0.732422,2.685547
2024-12-31 11:31:09.632211,0.256958,-0.091553,0.918579,3.723145,2.136230,2.441406
2024-12-31 11:31:09.640211,0.093140,0.080811,1.022217,-1.281738,1.525879,-8.178711
2024-12-31 11:31:09.649211,-0.156372,-0.109863,1.077271,-7.080078,2.746582,-10.925293
2024-12-31 11:31:09.657211,0.220703,-0.059692,0.994141,-5.249023,4.394531,-6.225586
2024-12-31 11:31:09.666211,0.111938,-0.055542,1.032471,-0.427246,-0.305176,-9.033203
2024-12-31 11:31:09.674211,-0.051025,-0.030396,1.093384,-2.014160,-0.061035,-10.070801
2024-12-31 11:31:09.683211,-0.069702,-0.026978,1.096924,-2.685547,1.708984,-3.601074
2024-12-31 11:31:09.691211,-0.063965,-0.028687,1.071777,2.624512,0.488281,2.502441
2024-12-31 11:31:09.699211,0.030396,0.004517,1.037720,-2.441406,-0.488281,5.676270
2024-12-31 11:31:09.708211,0.039062,0.003418,0.981567,-0.976562,-0.488281,7.690430
2024-12-31 11:31:09.716211,-0.000244,-0.112549,0.924683,-2.807617,1.708984,13.244629
2024-12-31 11:31:09.725211,0.039185,-0.058594,0.955933,-1.647949,3.540039,20.874023
2024-12-31 11:31:09.733211,-0.149902,-0.029663,1.111084,-1.464844,2.075195,26.916504
2024-12-31 11:31:09.742211,-0.047974,-0.044556,0.987549,-2.563477,3.967285,25.207520
2024-12-31 11:31:09.750211,0.082397,-0.130127,0.855713,-0.427246,1.525879,21.240234
2024-12-31 11:31:09.759211,-0.064209,-0.016724,1.032227,-4.577637,3.967285,23.864746
2024-12-31 11:31:09.767211,-0.184814,-0.111450,1.095581,-7.507324,4.394531,24.108887
2024-12-31 11:31:09.776211,-0.186890,-0.118530,1.073486,-3.845215,2.197266,31.005859
2024-12-31 11:31:09.784211,-0.023315,0.023804,1.045410,-4.577637,0.427246,28.259277
2024-12-31 11:31:09.793211,-0.323608,-0.016724,1.056885,-1.098633,3.295898,26.611328
2024-12-31 11:31:09.801211,0.025635,-0.054077,1.008301,-3.234863,0.732422,24.108887
2024-12-31 11:31:09.810211,-0.132690,0.045288,1.083618,-2.868652,1.770020,25.512695
2024-12-31 11:31:09.818211,-0.256104,-0.060669,1.067383,-2.563477,4.577637,21.606445
2024-12-31 11:31:09.826211,-0.143066,0.013428,0.990234,-4.028320,0.976562,20.507812
2024-12-31 11:31:09.835211,-0.172363,0.061401,1.067749,-3.051758,3.295898,18.432617
2024-12-31 11:31:09.843211,-0.352051,0.009033,1.034424,-3.784180,-0.183105,19.775391
2024-12-31 11:31:09.852211,-0.027588,0.032471,0.960205,-6.958008,0.183105,17.211914
2024-12-31 11:31:09.860211,-0.166382,-0.033203,0.979004,1.281738,0.244141,13.122559
2024-12-31 11:31:09.869211,-0.254761,0.035400,1.002197,-1.892090,-0.061035,12.634277
2024-12-31 11:31:09.877211,-0.582886,-0.032715,1.006104,-2.685547,0.000000,10.986328
2024-12-31 11:31:09.886211,-0.024048,0.065186,1.018677,-3.601074,0.610352,3.173828
2024-12-31 11:31:09.894211,-0.207153,0.003662,1.008789,-2.258301,1.586914,10.375977
2024-12-31 11:31:09.903211,-0.133911,-0.013184,1.006470,-2.868652,1.953125,9.826660
2024-12-31 11:31:09.911211,-0.036987,-0.009644,1.010010,-3.601074,2.685547,1.037598
2024-12-31 11:31:09.920211,-0.354980,-0.048828,1.007812,-4.333496,4.455566,-0.854492
2024-12-31 11:31:09.928211,-0.242554,-0.040527,1.025513,-5.004883,3.051758,-1.953125
2024-12-31 11:31:09.937211,-0.274902,-0.065430,0.972290,-1.098633,-0.854492,-3.967285
2024-12-31 11:31:09.945211,-0.239868,-0.078857,0.997192,-1.586914,1.892090,-2.746582
2024-12-31 11:31:09.953211,-0.185425,0.075439,1.032227,-0.671387,2.197266,-2.319336
2024-12-31 11:31:09.962211,-0.294067,-0.012817,0.975342,-8.544922,1.098633,-2.014160
2024-12-31 11:31:09.970211,-0.119751,-0.024292,0.969604,-1.037598,1.098633,-7.507324
2024-12-31 11:31:09.979211,-0.200439,0.043579,1.014893,-3.601074,-0.183105,-8.056641
2024-12-31 11:31:09.987211,-0.205200,-0.062012,0.979736,-5.920410,1.464844,-8.422852
2024-12-31 11:31:09.996211,-0.043091,-0.043335,0.949829,-6.408691,0.122070,-8.850098
2024-12-31 11:31:10.004211,0.100586,-0.179932,1.044067,-2.807617,0.854492,-11.962891
2024-12-31 11:31:10.013211,-0.191040,-0.026001,1.015381,-6.469727,-0.366211,-13.488770
2024-12-31 11:31:10.021211,-0.178101,-0.043335,0.910522,-0.122070,-0.610352,-18.127441
2024-12-31 11:31:10.030211,-0.119995,-0.095337,0.966797,-3.662109,0.366211,-18.127441
2024-12-31 11:31:10.038211,-0.110962,0.039795,1.030884,-6.958008,-1.342773,-20.629883
2024-12-31 11:31:10.047211,-0.119629,0.032104,1.070557,-5.004883,-0.122070,-23.071289
2024-12-31 11:31:10.055211,-0.160156,0.011963,0.975830,-1.708984,1.281738,-25.085449
2024-12-31 11:31:10.063211,-0.116455,-0.005737,1.046631,-1.281738,1.892090,-26.855469
2024-12-31 11:31:10.072211,-0.038086,-0.023193,1.068970,-5.371094,-0.732422,-25.390625
2024-12-31 11:31:10.080211,-0.093872,-0.023071,0.938232,-3.417969,0.488281,-26.428223
2024-12-31 11:31:10.089211,-0.077759,-0.049927,1.070557,-2.746582,-1.037598,-26.794434
2024-12-31 11:31:10.097211,-0.020996,0.005493,1.060547,-6.103516,-0.793457,-25.878906
2024-12-31 11:31:10.106211,0.009033,-0.049683,1.025391,-2.441406,0.427246,-26.062012
2024-12-31 11:31:10.114211,-0.046265,-0.099365,0.988525,-1.159668,3.723145,-25.939941
2024-12-31 11:31:10.123211,-0.072632,-0.094971,0.983398,-4.699707,1.037598,-27.038574
2024-12-31 11:31:10.131211,-0.104126,-0.142456,0.883423,-4.211426,0.732422,-25.451660
2024-12-31 11:31:10.140211,-0.081665,-0.103394,0.948486,-4.211426,2.380371,-23.559570
2024-12-31 11:31:10.148211,-0.067261,-0.003662,0.884399,-1.037598,0.732422,-21.606445
2024-12-31 11:31:10.157211,0.015747,-0.084473,1.033936,-5.737305,0.732422,-20.568848
2024-12-31 11:31:10.165211,-0.002686,0.051270,0.923462,-2.502441,-1.281738,-23.010254
2024-12-31 11:31:10.174211,0.041626,0.002808,1.049927,-3.479004,-1.831055,-24.047852
2024-12-31 11:31:10.182211,0.119019,-0.054077,1.091309,-2.014160,-0.793457,-26.306152
2024-12-31 11:31:10.190211,-0.017822,-0.038696,1.043823,-2.502441,0.976562,-28.442383
2024-12-31 11:31:10.199211,0.131226,-0.029419,1.048218,-3.234863,0.305176,-26.428223
2024-12-31 11:31:10.207211,0.174316,-0.024536,1.031128,-6.164551,0.915527,-25.390625
2024-12-31 11:31:10.216211,0.080444,0.033813,0.926514,-4.638672,2.014160,-28.503418
2024-12-31 11:31:10.224211,0.208740,0.031372,1.000000,-2.990723,0.732422,-28.808594
2024-12-31 11:31:10.233211,0.180298,-0.048096,1.032715,-4.577637,-1.159668,-27.954102
2024-12-31 11:31:10.241211,0.170654,-0.095825,1.082642,-4.089355,3.112793,-27.954102
2024-12-31 11:31:10.250211,0.336548,-0.005493,1.091919,-4.333496,2.990723,-25.207520
2024-12-31 11:31:10.258211,0.232788,-0.005859,1.013306,-3.051758,2.990723,-22.766113
2024-12-31 11:31:10.267211,0.206543,-0.016968,0.983765,-7.385254,1.953125,-19.409180
2024-12-31 11:31:10.275211,0.248047,-0.046387,1.011963,-5.554199,2.685547,-19.165039
2024-12-31 11:31:10.284211,0.256958,-0.017212,1.010864,-2.990723,1.586914,-17.089844
2024-12-31 11:31:10.292211,0.202881,-0.097534,0.971924,-0.854492,4.272461,-13.488770
2024-12-31 11:31:10.300211,0.290039,0.017822,1.008545,-8.361816,2.441406,-11.840820
2024-12-31 11:31:10.309211,0.265991,0.019287,0.997681,-1.342773,0.183105,-10.559082
2024-12-31 11:31:10.317211,0.234863,0.017212,1.010498,-6.713867,1.159668,-3.479004
2024-12-31 11:31:10.326211,0.052856,0.010864,1.001709,-4.699707,0.732422,-1.342773
2024-12-31 11:31:10.334211,0.153809,-0.025757,1.012207,0.610352,-1.464844,1.647949
2024-12-31 11:31:10.343211,0.426270,-0.049683,1.014282,3.906250,-1.403809,8.605957
2024-12-31 11:31:10.351211,0.260742,-0.070557,1.033936,0.610352,0.122070,13.977051
2024-12-31 11:31:10.360211,0.276855,-0.111694,0.969971,-0.549316,0.610352,13.000488
2024-12-31 11:31:10.368211,0.302734,-0.082153,0.942505,-4.699707,0.000000,16.784668
2024-12-31 11:31:10.377211,0.319824,-0.012817,0.951660,-5.249023,0.976562,21.240234
2024-12-31 11:31:10.385211,0.048828,-0.120239,1.078979,-4.821777,2.380371,25.817871
2024-12-31 11:31:10.394211,0.313843,0.009766,0.988403,0.732422,0.854492,33.447266
2024-12-31 11:31:10.402211,0.145386,-0.051025,1.007324,-2.502441,2.258301,35.217285
2024-12-31 11:31:10.411211,-0.076172,0.041870,1.089355,-4.577637,-0.366211,35.888672
2024-12-31 11:31:10.419211,0.001709,-0.028564,1.035767,-3.601074,0.854492,36.437988
2024-12-31 11:31:10.427211,0.339600,-0.017090,0.869873,0.061035,1.892090,38.330078
2024-12-31 11:31:10.436211,0.094482,-0.044312,1.063599,-1.525879,2.563477,31.799316
2024-12-31 11:31:10.444211,0.086548,-0.040649,1.043701,-3.662109,4.150391,29.846191
2024-12-31 11:31:10.453211,0.067505,-0.002563,1.083008,-0.854492,0.305176,33.630371
2024-12-31 11:31:10.461211,0.078613,0.047119,1.079590,-3.906250,0.427246,32.165527
2024-12-31 11:31:10.470211,0.045044,-0.053345,1.021484,-1.342773,2.868652,28.015137
2024-12-31 11:31:10.478211,0.153076,-0.104248,0.962280,-1.159668,1.586914,27.709961
2024-12-31 11:31:10.487211,0.120117,-0.067627,0.923584,-2.258301,1.403809,26.489258
2024-12-31 11:31:10.495211,0.022217,0.028931,1.000610,-6.530762,4.882812,24.353027
2024-12-31 11:31:10.504211,-0.029053,0.031738,1.010986,-5.676270,2.929688,25.329590
2024-12-31 11:31:10.512211,-0.043457,-0.036133,0.968872,-1.159668,2.014160,27.343750
2024-12-31 11:31:10.521211,-0.062622,-0.116333,0.985962,-2.441406,2.014160,26.794434
2024-12-31 11:31:10.529211,-0.021362,-0.007935,0.996216,-5.859375,-0.061035,26.916504
2024-12-31 11:31:10.537211,-0.071533,-0.012085,1.036011,-4.455566,0.976562,27.709961
2024-12-31 11:31:10.546211,-0.129883,0.061279,1.108398,-4.882812,-0.183105,27.832031
2024-12-31 11:31:10.554211,-0.006226,0.042358,1.075684,-2.868652,-0.671387,28.259277
2024-12-31 11:31:10.563211,0.011719,0.092529,1.050293,-1.403809,1.098633,28.320312
2024-12-31 11:31:10.571211,-0.122681,0.111084,1.098877,-2.685547,2.014160,28.686523
2024-12-31 11:31:10.580211,-0.121094,-0.023438,0.985352,-1.953125,2.685547,26.794434
2024-12-31 11:31:10.588211,-0.031250,0.024048,0.995728,1.281738,2.441406,27.587891
2024-12-31 11:31:10.597211,-0.091187,0.075073,0.982788,-0.976562,2.380371,24.047852
2024-12-31 11:31:10.605211,-0.296387,-0.052856,1.052979,-0.061035,3.845215,21.606445
2024-12-31 11:31:10.614211,-0.141235,-0.072388,0.998291,-0.549316,3.173828,25.878906
2024-12-31 11:31:10.622211,-0.176880,-0.028687,1.003662,0.976562,1.708984,23.498535
2024-12-31 11:31:10.631211,-0.151978,-0.008545,0.948853,-3.784180,0.122070,20.080566
2024-12-31 11:31:10.639211,-0.470459,-0.126709,1.034790,-1.159668,2.380371,15.380859
2024-12-31 11:31:10.648211,-0.166626,0.092651,0.999146,-2.746582,-0.122070,14.648438
2024-12-31 11:31:10.656211,-0.165771,0.050171,1.049805,0.427246,0.183105,13.244629
2024-12-31 11:31:10.664211,-0.179565,-0.044922,0.983398,1.098633,-0.732422,12.939453
2024-12-31 11:31:10.673211,-0.141113,0.023193,0.948120,-7.385254,2.746582,9.582520
2024-12-31 11:31:10.681211,-0.177490,-0.065674,0.978271,-0.671387,-0.427246,6.958008
2024-12-31 11:31:10.690211,-0.191528,0.077515,0.991577,0.366211,1.220703,6.591797
2024-12-31 11:31:10.698211,-0.533203,-0.001831,1.040771,-2.258301,1.464844,7.019043
2024-12-31 11:31:10.707211,-0.259521,-0.089844,1.001709,-3.845215,1.281738,5.065918
2024-12-31 11:31:10.715211,-0.040649,-0.022095,1.011475,-2.197266,0.122070,-2.197266
2024-12-31 11:31:10.724211,-0.024414,-0.007324,1.010254,-2.868652,1.098633,-1.831055
2024-12-31 11:31:10.732211,-0.132690,0.083862,1.007080,-4.028320,2.929688,-2.014160
2024-12-31 11:31:10.741211,-0.444092,0.089600,1.024170,-5.981445,4.272461,-6.225586
2024-12-31 11:31:10.749211,-0.307129,-0.042847,1.022827,-3.051758,2.929688,-16.235352
2024-12-31 11:31:10.758211,-0.293213,0.193604,0.988403,-8.972168,2.990723,-13.610840
2024-12-31 11:31:10.766211,-0.289795,0.017090,1.010498,-6.591797,2.929688,-10.620117
2024-12-31 11:31:10.775211,-0.152100,-0.005737,0.988525,1.892090,-3.112793,-21.057129
2024-12-31 11:31:10.783211,-0.225220,-0.120728,0.997681,-5.920410,0.427246,-19.348145
2024-12-31 11:31:10.791211,-0.253540,-0.020630,1.011475,-6.164551,-0.427246,-17.150879
2024-12-31 11:31:10.800211,-0.166138,-0.006348,1.034302,-4.211426,-1.708984,-20.385742
2024-12-31 11:31:10.808211,-0.175293,-0.021973,1.014282,-3.723145,-0.305176,-18.981934
2024-12-31 11:31:10.817211,-0.167847,-0.005371,1.043335,-5.920410,1.953125,-20.996094
2024-12-31 11:31:10.825211,-0.184082,0.000122,1.002808,-3.723145,-0.915527,-27.770996
2024-12-31 11:31:10.834211,-0.068359,-0.017334,1.108032,-3.234863,-2.685547,-30.517578
2024-12-31 11:31:10.842211,-0.181152,-0.016113,1.039307,-4.394531,0.366211,-29.724121
2024-12-31 11:31:10.851211,-0.138306,-0.075684,1.038574,-2.502441,0.671387,-32.714844
2024-12-31 11:31:10.859211,-0.086792,-0.006348,1.061279,-2.624512,-0.671387,-30.212402
2024-12-31 11:31:10.868211,-0.138184,-0.091309,1.040894,-3.479004,2.624512,-27.160645
2024-12-31 11:31:10.876211,-0.120972,-0.084595,1.024658,-6.652832,1.403809,-26.550293
2024-12-31 11:31:10.885211,-0.088745,-0.099976,1.089478,-3.112793,1.159668,-28.564453
2024-12-31 11:31:10.893211,-0.163574,-0.146729,0.995239,-3.173828,0.183105,-29.052734
2024-12-31 11:31:10.901211,-0.050171,-0.100586,1.036743,-4.760742,2.136230,-30.029297
2024-12-31 11:31:10.910211,-0.105225,-0.070068,0.972168,-2.502441,1.281738,-30.944824
2024-12-31 11:31:10.918211,-0.123901,-0.113770,0.994507,-2.441406,1.647949,-27.038574
2024-12-31 11:31:10.927211,-0.056885,-0.015381,1.015015,-4.760742,1.953125,-24.963379
2024-12-31 11:31:10.935211,-0.054688,-0.119873,1.015869,-2.319336,1.953125,-28.076172
2024-12-31 11:31:10.944211,-0.027222,-0.050781,0.987305,-2.441406,-0.305176,-29.418945
2024-12-31 11:31:10.952211,-0.105225,-0.098877,0.933472,-3.234863,0.976562,-28.259277
2024-12-31 11:31:10.961211,0.054810,-0.159424,1.046753,0.915527,0.732422,-28.015137
2024-12-31 11:31:10.969211,-0.029419,-0.061646,1.027344,-6.164551,-0.793457,-26.672363
2024-12-31 11:31:10.978211,0.082764,-0.028076,0.988647,-5.981445,1.342773,-25.146484
2024-12-31 11:31:10.986211,0.090454,0.034546,1.019165,-6.408691,-0.061035,-25.451660
2024-12-31 11:31:10.995211,0.031494,-0.064453,0.934082,-2.258301,0.183105,-29.907227
2024-12-31 11:31:11.003211,0.124268,-0.030762,0.985596,-1.770020,2.624512,-29.907227
2024-12-31 11:31:11.012211,0.197510,-0.050293,0.987915,-4.455566,2.258301,-28.320312
2024-12-31 11:31:11.020211,0.208618,0.052246,1.073486,-6.225586,2.502441,-26.611328
2024-12-31 11:31:11.028211,0.133057,0.003052,1.004517,-2.075195,3.601074,-29.907227
2024-12-31 11:31:11.037211,0.152588,0.022949,1.085693,-4.455566,3.234863,-31.555176
2024-12-31 11:31:11.045211,0.187378,-0.081665,0.991821,-2.807617,1.281738,-29.235840
2024-12-31 11:31:11.054211,0.208374,-0.038940,0.969604,-5.310059,4.150391,-25.634766
2024-12-31 11:31:11.062211,0.501343,0.142822,1.089966,-4.394531,1.953125,-22.277832
2024-12-31 11:31:11.071211,0.251953,-0.008789,1.006958,-5.249023,2.868652,-20.080566
2024-12-31 11:31:11.079211,0.384277,0.103027,1.052734,-5.615234,1.892090,-17.944336
2024-12-31 11:31:11.088211,0.305420,0.071899,1.025269,-4.211426,0.183105,-17.883301
2024-12-31 11:31:11.096211,0.323120,0.035156,1.014648,-4.150391,3.479004,-16.418457
2024-12-31 11:31:11.105211,0.197144,0.043945,0.999756,-3.723145,1.464844,-16.357422
2024-12-31 11:31:11.113211,0.297729,-0.001587,1.016113,-1.586914,-0.244141,-13.977051
2024-12-31 11:31:11.122211,0.211304,-0.042725,1.003418,-1.831055,2.624512,-13.244629
2024-12-31 11:31:11.130211,0.092041,-0.032104,0.995605,-3.784180,2.319336,-6.530762
2024-12-31 11:31:11.138211,0.151123,0.038818,1.003784,0.915527,-1.220703,-1.220703
2024-12-31 11:31:11.147211,0.128296,-0.013794,1.028564,2.075195,-2.990723,3.234863
2024-12-31 11:31:11.155211,0.266357,0.070435,1.013428,-2.441406,-2.197266,4.211426
2024-12-31 11:31:11.164211,0.330078,0.029297,0.965332,-1.220703,-0.976562,8.117676
2024-12-31 11:31:11.172211,0.134888,0.005127,1.006592,-6.286621,3.601074,5.493164
2024-12-31 11:31:11.181211,0.278076,-0.010742,0.969727,-1.342773,1.159668,2.319336
2024-12-31 11:31:11.189211,0.080566,0.052612,1.087158,-1.342773,-0.488281,7.629395
2024-12-31 11:31:11.198211,0.005005,-0.049683,1.084839,-3.723145,0.183105,11.779785
2024-12-31 11:31:11.206211,0.215820,-0.022827,1.035156,-3.723145,0.244141,9.582520
2024-12-31 11:31:11.215211,0.204590,0.050659,0.964844,0.305176,1.220703,10.986328
2024-12-31 11:31:11.223211,0.157471,-0.061523,0.985718,-5.737305,-0.366211,12.145996
2024-12-31 11:31:11.232211,0.141479,0.093262,0.983765,-1.586914,-0.061035,14.099121
2024-12-31 11:31:11.240211,0.182861,-0.070435,0.942505,-2.929688,-0.488281,13.122559
2024-12-31 11:31:11.249211,0.205078,0.070190,1.018555,-3.295898,-0.305176,13.000488
2024-12-31 11:31:11.257211,0.216675,0.038574,1.028564,-2.990723,1.586914,11.291504
2024-12-31 11:31:11.265211,0.067261,0.016724,0.994873,-3.906250,3.295898,8.300781
2024-12-31 11:31:11.274211,0.142822,-0.057739,1.041382,-2.990723,-0.793457,8.117676
2024-12-31 11:31:11.282211,0.039062,-0.017822,1.018066,-1.403809,1.464844,6.225586
2024-12-31 11:31:11.291211,0.129028,-0.086548,0.972046,-1.770020,1.037598,5.310059
2024-12-31 11:31:11.299211,0.142456,-0.056885,0.977051,-4.394531,0.854492,3.479004
2024-12-31 11:31:11.308211,0.098511,-0.056519,1.016357,-3.540039,3.479004,0.793457
2024-12-31 11:31:11.316211,0.154541,-0.056641,0.918213,-1.892090,3.295898,-0.427246
2024-12-31 11:31:11.325211,0.077148,-0.085938,0.940186,-3.784180,0.915527,-2.136230
2024-12-31 11:31:11.333211,0.097290,-0.145874,0.958252,-4.699707,1.403809,1.098633
2024-12-31 11:31:11.342211,0.104004,-0.132568,0.906616,-4.394531,2.990723,5.004883
2024-12-31 11:31:11.350211,0.047729,-0.125000,1.004272,-6.469727,0.305176,6.347656
2024-12-31 11:31:11.359211,0.073486,-0.136108,0.954590,-2.136230,-0.122070,8.178711
2024-12-31 11:31:11.367211,0.009155,-0.056274,0.970093,-1.953125,0.671387,9.460449
2024-12-31 11:31:11.376211,-0.003418,-0.025635,0.942993,-0.366211,-0.244141,10.131836
2024-12-31 11:31:11.384211,-0.138672,-0.075684,1.024170,-0.793457,0.183105,10.742188
2024-12-31 11:31:11.392211,-0.060547,-0.035522,1.043823,-0.244141,0.305176,12.634277
2024-12-31 11:31:11.401211,-0.094604,-0.092529,1.023315,-1.098633,1.220703,15.197754
2024-12-31 11:31:11.409211,-0.125000,-0.073975,1.039062,-2.197266,2.807617,15.808105
2024-12-31 11:31:11.418211,-0.118408,-0.043213,0.956787,-1.037598,1.892090,19.165039
2024-12-31 11:31:11.426211,-0.184814,-0.095581,1.010376,-3.112793,-0.305176,23.559570
2024-12-31 11:31:11.435211,-0.192871,0.014526,1.072388,-6.958008,0.366211,23.071289
2024-12-31 11:31:11.443211,-0.152466,0.025879,0.995361,-3.845215,0.488281,18.127441
2024-12-31 11:31:11.452211,-0.119995,0.009766,0.941895,-0.427246,1.647949,14.099121
2024-12-31 11:31:11.460211,-0.310425,-0.063599,1.036377,-1.098633,5.554199,12.145996
2024-12-31 11:31:11.469211,-0.308228,0.002930,1.097778,-1.953125,1.953125,12.023926
2024-12-31 11:31:11.477211,-0.246582,-0.007202,1.032471,-2.502441,2.258301,14.709473
2024-12-31 11:31:11.486211,-0.251099,0.097656,1.018555,-3.356934,1.403809,15.075684
2024-12-31 11:31:11.494211,-0.262573,-0.034302,1.001099,-1.953125,0.976562,16.235352
2024-12-31 11:31:11.503211,-0.140381,-0.015381,0.966064,-1.098633,1.892090,12.878418
2024-12-31 11:31:11.511211,-0.363403,-0.069580,1.029175,-1.220703,0.183105,8.850098
2024-12-31 11:31:11.519211,-0.254028,0.029541,1.009888,-5.310059,0.305176,9.643555
2024-12-31 11:31:11.528211,-0.262817,0.027344,1.011597,-3.906250,2.624512,9.094238
2024-12-31 11:31:11.536211,-0.302734,0.080444,1.012817,-3.234863,1.525879,5.676270
2024-12-31 11:31:11.545211,-0.050659,-0.003906,1.015015,-3.540039,1.037598,2.807617
2024-12-31 11:31:11.553211,-0.202393,-0.010742,1.013916,-5.004883,3.784180,-1.159668
2024-12-31 11:31:11.562211,-0.390625,-0.080933,1.001709,-4.577637,4.577637,-3.356934
2024-12-31 11:31:11.570211,-0.263794,0.057861,1.009644,-4.028320,0.549316,-2.258301
2024-12-31 11:31:11.579211,-0.033936,0.070923,1.043701,-0.793457,0.366211,-3.479004
2024-12-31 11:31:11.587211,-0.301636,0.053223,1.026123,-4.028320,2.197266,-3.601074
2024-12-31 11:31:11.596211,-0.261719,0.015381,1.001587,-2.441406,0.366211,-3.234863
2024-12-31 11:31:11.604211,-0.215210,-0.027100,1.012939,-2.319336,0.793457,-5.798340
2024-12-31 11:31:11.613211,-0.332764,0.016235,0.935791,-3.784180,1.037598,-5.981445
2024-12-31 11:31:11.621211,-0.210205,-0.056885,1.003418,-1.953125,-0.122070,-6.958008
2024-12-31 11:31:11.629211,-0.037720,-0.013428,1.054565,-6.164551,0.122070,-7.629395
2024-12-31 11:31:11.638211,-0.228516,-0.055786,0.949219,-5.187988,-0.854492,-9.582520
2024-12-31 11:31:11.646211,-0.210327,-0.019897,0.973022,-4.394531,-0.244141,-13.977051
2024-12-31 11:31:11.655211,-0.162476,-0.010742,1.010620,-4.150391,0.244141,-16.845703
2024-12-31 11:31:11.663211,-0.201294,-0.093262,1.037842,-0.549316,0.793457,-20.812988
2024-12-31 11:31:11.672211,-0.222290,-0.029907,0.922485,-2.624512,0.061035,-23.986816
2024-12-31 11:31:11.680211,-0.067383,-0.036499,1.146362,-2.136230,-1.647949,-28.198242
2024-12-31 11:31:11.689211,-0.131348,-0.090088,1.008301,-1.220703,-1.403809,-27.160645
2024-12-31 11:31:11.697211,-0.145142,-0.011353,1.010864,-4.394531,-0.183105,-24.047852
2024-12-31 11:31:11.706211,-0.157349,-0.116577,0.955444,-0.061035,0.305176,-23.254395
2024-12-31 11:31:11.714211,-0.070679,-0.057617,1.045410,-3.845215,0.061035,-25.634766
2024-12-31 11:31:11.723211,-0.035156,-0.045532,1.039062,-4.760742,1.220703,-28.015137
2024-12-31 11:31:11.731211,-0.081787,-0.023804,1.005859,-7.202148,1.159668,-26.306152
2024-12-31 11:31:11.740211,0.055908,-0.050171,1.052734,-2.807617,2.441406,-26.672363
2024-12-31 11:31:11.748211,0.002930,-0.088135,1.006348,-4.211426,2.258301,-27.404785
2024-12-31 11:31:11.756211,0.030273,-0.052002,1.035889,-5.615234,3.112793,-28.259277
2024-12-31 11:31:11.765211,0.068237,-0.073120,1.072632,-8.361816,0.183105,-26.489258
2024-12-31 11:31:11.773211,0.043335,-0.051147,1.108032,-4.760742,0.305176,-26.245117
2024-12-31 11:31:11.782211,0.019775,-0.098877,1.009155,-5.615234,-1.525879,-26.428223
2024-12-31 11:31:11.790211,0.099243,-0.027588,1.138550,-5.859375,0.549316,-25.085449
2024-12-31 11:31:11.799211,0.069946,-0.021851,1.066650,-9.155273,3.540039,-23.864746
2024-12-31 11:31:11.807211,0.087891,-0.034058,1.061157,-7.446289,4.150391,-24.536133
2024-12-31 11:31:11.816211,0.100098,0.021729,1.129639,-8.850098,2.380371,-25.817871
2024-12-31 11:31:11.824211,0.108154,-0.039551,1.014771,-7.995605,2.258301,-26.306152
2024-12-31 11:31:11.833211,0.124634,0.030640,1.080444,-9.704590,1.953125,-28.381348
2024-12-31 11:31:11.841211,0.148193,-0.027954,0.958130,-12.817383,3.051758,-29.113770
2024-12-31 11:31:11.850211,0.166992,-0.004272,1.047607,-16.052246,4.577637,-26.977539
2024-12-31 11:31:11.858211,0.183594,0.012207,1.021606,-24.658203,2.929688,-24.841309
2024-12-31 11:31:11.866211,0.227539,0.032837,1.022583,-27.770996,-0.671387,-24.475098
2024-12-31 11:31:11.875211,0.181641,-0.037476,0.969116,-27.038574,-0.061035,-22.399902
2024-12-31 11:31:11.883211,0.240601,0.024902,1.033203,-27.465820,0.366211,-16.601562
2024-12-31 11:31:11.892211,0.213501,-0.033203,1.009277,-25.024414,1.464844,-13.427734
2024-12-31 11:31:11.900211,0.224731,0.031128,0.954956,-27.526855,0.793457,-10.070801
2024-12-31 11:31:11.909211,0.268311,0.064575,1.018799,-19.104004,0.976562,-6.652832
2024-12-31 11:31:11.917211,0.243896,0.050171,0.992065,-11.901855,1.403809,-5.004883
2024-12-31 11:31:11.926211,0.448730,0.257690,1.023560,-10.620117,-0.427246,-2.746582
2024-12-31 11:31:11.934211,0.221680,0.085938,0.988892,-2.197266,1.525879,-3.906250
2024-12-31 11:31:11.943211,0.265015,0.098633,1.005249,2.319336,2.990723,-0.122070
2024-12-31 11:31:11.951211,0.185669,0.084839,0.994385,3.967285,0.976562,2.868652
2024-12-31 11:31:11.960211,0.113770,0.084351,0.978516,6.591797,-0.976562,3.234863
2024-12-31 11:31:11.968211,0.255371,0.057007,1.014160,23.193359,0.122070,5.432129
2024-12-31 11:31:11.977211,0.257446,0.005005,1.008423,30.395508,0.366211,7.141113
2024-12-31 11:31:11.985211,-0.008789,-0.040405,1.074341,20.996094,-1.403809,8.422852
2024-12-31 11:31:11.993211,0.360718,0.076416,0.977417,12.878418,-1.220703,13.977051
2024-12-31 11:31:12.002211,0.093384,0.042603,1.019653,9.521484,4.211426,15.258789
2024-12-31 11:31:12.010211,0.228638,0.045044,1.058350,14.343262,0.732422,15.747070
2024-12-31 11:31:12.019211,0.224243,-0.026245,0.931885,15.991211,0.549316,17.883301
2024-12-31 11:31:12.027211,0.041260,-0.010254,1.082031,15.319824,1.464844,22.094727
2024-12-31 11:31:12.036211,0.190552,-0.023560,1.043091,14.648438,-0.305176,22.399902
2024-12-31 11:31:12.044211,0.198486,0.000122,1.079468,8.117676,-0.305176,23.132324
2024-12-31 11:31:12.053211,0.200317,0.093872,1.020630,0.671387,-0.610352,24.108887
2024-12-31 11:31:12.061211,0.266846,0.042847,0.976685,0.549316,0.061035,23.498535
2024-12-31 11:31:12.070211,0.181274,-0.004272,0.937622,-1.159668,-0.305176,23.315430
2024-12-31 11:31:12.078211,0.212036,-0.026245,1.018921,3.173828,-0.183105,24.658203
2024-12-31 11:31:12.087211,0.160400,0.013916,0.951294,0.488281,-0.061035,26.306152
2024-12-31 11:31:12.095211,-0.038330,-0.002441,1.083252,-4.394531,0.854492,21.484375
2024-12-31 11:31:12.104211,0.166260,0.015503,1.008545,-2.502441,2.014160,20.996094
2024-12-31 11:31:12.112211,0.169434,-0.015137,1.008667,-0.244141,1.586914,17.639160
2024-12-31 11:31:12.120211,0.152954,0.078979,1.069092,-1.953125,1.892090,14.709473
2024-12-31 11:31:12.129211,0.088989,-0.057251,0.963135,-2.014160,0.793457,13.732910
2024-12-31 11:31:12.137211,0.001465,-0.008911,0.998047,-2.380371,3.662109,14.465332
2024-12-31 11:31:12.146211,0.082764,-0.075439,1.000977,1.037598,3.051758,13.244629
2024-12-31 11:31:12.154211,-0.073975,0.039307,1.067261,-1.220703,1.892090,12.634277
2024-12-31 11:31:12.163211,-0.064819,0.017456,1.096558,-2.990723,5.004883,12.268066
2024-12-31 11:31:12.171211,-0.079346,-0.091675,1.069824,-3.662109,1.220703,7.324219
2024-12-31 11:31:12.180211,-0.020630,-0.093872,1.028931,-2.990723,1.586914,2.868652
2024-12-31 11:31:12.188211,-0.092773,-0.027588,1.057251,-3.784180,1.220703,1.770020
2024-12-31 11:31:12.197211,-0.077515,-0.096069,1.011475,-0.488281,0.000000,5.065918
2024-12-31 11:31:12.205211,-0.170532,-0.070068,1.054810,-6.591797,0.183105,8.605957
2024-12-31 11:31:12.214211,-0.171509,-0.047974,0.998413,-2.929688,2.014160,10.192871
2024-12-31 11:31:12.222211,-0.132080,-0.014648,1.014038,-3.417969,1.525879,11.596680
2024-12-31 11:31:12.230211,-0.133911,-0.015869,1.014526,-1.220703,2.380371,15.502930
2024-12-31 11:31:12.239211,-0.103027,0.036377,1.027466,-2.807617,1.525879,19.348145
2024-12-31 11:31:12.247211,-0.089355,-0.051514,0.954102,-4.333496,1.892090,18.554688
2024-12-31 11:31:12.256211,-0.230835,-0.008057,1.056763,-2.868652,0.854492,18.798828
2024-12-31 11:31:12.264211,-0.186279,-0.040161,0.974609,-4.821777,-0.427246,15.686035
2024-12-31 11:31:12.273211,-0.045776,0.078613,0.947754,-1.647949,0.488281,17.700195
2024-12-31 11:31:12.281211,-0.176636,-0.022339,1.001343,-1.281738,1.953125,15.991211
2024-12-31 11:31:12.290211,-0.364380,0.009033,1.055542,-1.281738,3.723145,15.563965
2024-12-31 11:31:12.298211,-0.099731,-0.060669,0.997559,-0.427246,1.464844,12.695312
2024-12-31 11:31:12.307211,-0.283569,0.007690,1.009766,-3.479004,2.258301,10.498047
2024-12-31 11:31:12.315211,-0.078613,0.035034,0.977295,-1.525879,0.488281,5.493164
2024-12-31 11:31:12.324211,-0.177856,-0.011841,1.020264,-4.272461,1.892090,5.432129
2024-12-31 11:31:12.332211,-0.087524,0.057007,0.974365,-2.380371,1.464844,5.187988
2024-12-31 11:31:12.341211,-0.494995,-0.099731,1.031494,-1.892090,-0.305176,3.906250
2024-12-31 11:31:12.349211,0.099854,0.070435,0.999512,-2.624512,-0.854492,5.371094
2024-12-31 11:31:12.357211,-0.290649,0.008301,1.014893,-5.004883,2.380371,5.493164
2024-12-31 11:31:12.366211,-0.278564,-0.098145,1.005005,-1.403809,1.342773,-0.488281
2024-12-31 11:31:12.374211,-0.050049,-0.028687,1.010132,-2.441406,0.488281,-0.305176
2024-12-31 11:31:12.383211,-0.095215,0.030029,1.011963,-3.479004,2.685547,-0.488281
2024-12-31 11:31:12.391211,-0.345703,0.020752,1.013306,-4.089355,4.516602,-1.464844
2024-12-31 11:31:12.400211,-0.359985,0.015503,0.997559,-5.920410,3.845215,-1.647949
2024-12-31 11:31:12.408211,-0.111450,-0.001343,1.042480,-3.234863,0.000000,-4.211426
2024-12-31 11:31:12.417211,-0.239014,-0.062012,0.973145,-3.173828,0.183105,-5.371094
2024-12-31 11:31:12.425211,-0.219238,-0.005005,0.981567,-7.751465,0.427246,-6.164551
2024-12-31 11:31:12.434211,-0.125244,0.059326,1.072144,-4.211426,-0.488281,-7.202148
2024-12-31 11:31:12.442211,-0.309204,-0.061035,0.998901,-2.685547,1.953125,-7.324219
2024-12-31 11:31:12.451211,-0.175415,0.027710,1.036377,-4.882812,-0.732422,-7.629395
2024-12-31 11:31:12.459211,0.026855,0.056274,1.047729,-2.563477,0.061035,-6.713867
2024-12-31 11:31:12.468211,-0.032837,-0.030884,1.070068,-3.845215,1.098633,-6.469727
2024-12-31 11:31:12.476211,-0.183960,-0.006104,1.022339,-6.713867,-3.173828,-9.094238
2024-12-31 11:31:12.484211,-0.096802,-0.079956,0.979614,-3.417969,1.098633,-11.840820
2024-12-31 11:31:12.493211,-0.107056,0.025635,1.005249,-3.112793,0.122070,-14.465332
2024-12-31 11:31:12.501211,-0.178589,-0.044434,1.032349,-0.061035,0.000000,-17.028809
2024-12-31 11:31:12.510211,-0.131470,-0.070557,0.970825,-2.197266,0.427246,-19.042969
2024-12-31 11:31:12.518211,-0.052124,-0.055908,1.089111,-3.234863,0.732422,-21.606445
2024-12-31 11:31:12.527211,-0.121094,-0.064575,1.015259,-2.929688,1.464844,-22.399902
2024-12-31 11:31:12.535211,-0.124512,-0.007568,0.987549,-7.080078,0.183105,-18.005371
2024-12-31 11:31:12.544211,-0.123535,0.033569,0.979980,-3.295898,0.000000,-16.296387
2024-12-31 11:31:12.552211,-0.075928,-0.016846,1.053467,-3.540039,0.305176,-20.812988
2024-12-31 11:31:12.561211,-0.111572,-0.049316,0.945923,-0.854492,3.051758,-25.085449
2024-12-31 11:31:12.569211,-0.152710,-0.102051,0.979980,-7.446289,3.051758,-21.240234
2024-12-31 11:31:12.578211,-0.115234,-0.034180,0.969360,-5.493164,1.281738,-19.531250
2024-12-31 11:31:12.586211,0.007568,0.026367,1.073853,-4.760742,2.014160,-17.883301
2024-12-31 11:31:12.594211,-0.012451,-0.117676,1.027222,-3.112793,3.234863,-17.883301
2024-12-31 11:31:12.603211,-0.039185,-0.083618,1.036499,-8.361816,0.671387,-16.174316
2024-12-31 11:31:12.611211,0.030762,-0.071533,1.052979,-1.708984,0.183105,-18.066406
2024-12-31 11:31:12.620211,-0.117065,-0.029785,0.964844,-4.943848,-0.976562,-23.071289
2024-12-31 11:31:12.628211,0.043579,-0.012329,1.019043,-2.380371,-2.624512,-25.207520
2024-12-31 11:31:12.637211,0.038086,-0.050781,0.983643,-5.554199,2.929688,-24.414062
2024-12-31 11:31:12.645211,0.159790,-0.093140,1.037598,-2.075195,2.868652,-28.320312
2024-12-31 11:31:12.654211,0.032471,-0.102295,0.971191,-6.958008,3.845215,-27.404785
2024-12-31 11:31:12.662211,0.146729,-0.070557,1.015991,-5.432129,1.037598,-26.794434
2024-12-31 11:31:12.671211,0.178101,-0.114136,0.931396,-1.953125,3.051758,-25.634766
2024-12-31 11:31:12.679211,0.255737,-0.089844,1.105469,-4.638672,1.464844,-25.451660
2024-12-31 11:31:12.688211,0.230713,-0.072021,0.942871,-3.845215,4.028320,-24.475098
2024-12-31 11:31:12.696211,0.182861,-0.177979,0.924683,-4.333496,2.014160,-21.362305
2024-12-31 11:31:12.705211,0.274658,-0.068970,0.958740,-2.441406,3.662109,-20.263672
2024-12-31 11:31:12.713211,0.219971,-0.058350,1.023193,-6.591797,0.976562,-17.761230
2024-12-31 11:31:12.721211,0.203369,-0.071777,0.991821,-4.638672,1.831055,-12.512207
2024-12-31 11:31:12.730211,0.316650,-0.052490,1.025513,-2.868652,0.854492,-7.141113
2024-12-31 11:31:12.738211,0.293091,0.011108,1.084473,-5.249023,-0.122070,-1.708984
2024-12-31 11:31:12.747211,0.224121,0.060913,1.023560,-5.737305,2.197266,-1.647949
2024-12-31 11:31:12.755211,0.242188,0.086060,0.981201,-4.272461,3.051758,-0.427246
2024-12-31 11:31:12.764211,0.276123,0.102539,0.982788,-2.868652,-2.502441,7.873535
2024-12-31 11:31:12.772211,0.291138,0.094727,1.007446,4.394531,-2.441406,10.437012
2024-12-31 11:31:12.781211,0.193726,0.120850,1.017334,-0.793457,-0.122070,7.995605
2024-12-31 11:31:12.789211,0.310425,0.015503,1.001709,-0.427246,-0.732422,12.695312
2024-12-31 11:31:12.798211,0.235474,0.000854,1.038452,0.610352,-0.305176,18.127441
2024-12-31 11:31:12.806211,0.218140,0.015625,0.976196,-3.540039,1.159668,20.568848
2024-12-31 11:31:12.815211,0.219360,0.118286,1.007935,1.037598,0.183105,23.254395
2024-12-31 11:31:12.823211,0.144287,0.063599,1.011108,2.929688,-0.061035,22.338867
2024-12-31 11:31:12.831211,0.395630,0.142212,0.933716,-0.122070,1.281738,21.423340
2024-12-31 11:31:12.840211,0.085571,0.198364,1.061279,-0.915527,1.220703,22.277832
2024-12-31 11:31:12.848211,0.197388,0.202515,0.982178,-0.122070,0.793457,17.700195
2024-12-31 11:31:12.857211,0.056763,0.145142,1.043213,-3.723145,1.342773,13.366699
2024-12-31 11:31:12.865211,-0.114014,0.063965,1.121704,0.244141,-0.671387,16.967773
2024-12-31 11:31:12.874211,0.243408,0.126709,1.068359,-2.319336,-2.075195,16.723633
2024-12-31 11:31:12.882211,0.122314,0.028564,1.035400,-3.906250,-1.098633,11.962891
2024-12-31 11:31:12.891211,0.156738,0.165039,1.060913,-0.061035,-0.915527,8.178711
2024-12-31 11:31:12.899211,0.082642,0.163818,1.057495,-0.732422,1.220703,7.507324
2024-12-31 11:31:12.908211,0.101074,-0.024658,0.961548,-1.831055,-0.671387,5.004883
2024-12-31 11:31:12.916211,0.108887,0.023682,0.993408,-5.798340,-0.305176,2.563477
2024-12-31 11:31:12.925211,0.168213,0.119629,0.994141,-4.089355,-0.183105,2.929688
2024-12-31 11:31:12.933211,0.227783,0.026489,0.834351,-3.051758,3.540039,4.638672
2024-12-31 11:31:12.942211,0.062500,-0.018066,1.005493,-6.164551,4.333496,2.807617
2024-12-31 11:31:12.950211,-0.181396,-0.013428,1.163208,-5.676270,2.563477,0.915527
2024-12-31 11:31:12.958211,0.036743,-0.053101,1.026733,-2.624512,1.892090,1.281738
2024-12-31 11:31:12.967211,-0.092407,-0.061768,1.062622,0.610352,3.173828,2.624512
2024-12-31 11:31:12.975211,0.076904,-0.078491,1.004395,-2.990723,4.028320,3.417969
2024-12-31 11:31:12.984211,-0.104858,-0.081665,1.098633,-4.211426,2.258301,-0.854492
2024-12-31 11:31:12.992211,-0.092651,0.040894,1.034058,0.610352,3.601074,0.122070
2024-12-31 11:31:13.001211,-0.101440,-0.070801,1.068848,-3.784180,0.976562,-2.380371
2024-12-31 11:31:13.009211,0.051392,-0.068604,1.050659,-1.770020,-1.159668,0.793457
2024-12-31 11:31:13.018211,-0.005005,-0.072876,1.012085,-0.915527,-1.159668,2.258301
2024-12-31 11:31:13.026211,0.093628,-0.105591,0.972046,0.976562,1.586914,6.469727
2024-12-31 11:31:13.035211,0.063721,-0.107788,0.906982,-4.760742,2.624512,8.666992
2024-12-31 11:31:13.043211,-0.075562,-0.137695,0.991455,-4.272461,2.563477,7.324219
2024-12-31 11:31:13.052211,-0.053955,-0.085693,0.955322,-4.394531,1.342773,9.033203
2024-12-31 11:31:13.060211,-0.142334,-0.166870,1.064697,-3.479004,2.319336,11.901855
2024-12-31 11:31:13.069211,-0.071167,-0.083862,0.978149,-4.577637,0.427246,13.854980
2024-12-31 11:31:13.077211,0.017700,-0.170410,0.986206,-2.807617,0.305176,15.930176
2024-12-31 11:31:13.085211,-0.008179,-0.126709,0.918457,-7.629395,0.915527,18.737793
2024-12-31 11:31:13.094211,-0.268677,-0.052368,1.092407,-4.028320,0.610352,22.460938
2024-12-31 11:31:13.102211,-0.038818,-0.130981,0.968872,-2.929688,2.624512,26.550293
2024-12-31 11:31:13.111211,-0.189575,-0.089111,1.089355,-2.624512,3.356934,28.137207
2024-12-31 11:31:13.119211,0.130127,-0.078491,0.828857,-0.793457,1.342773,29.663086
2024-12-31 11:31:13.128211,-0.059937,-0.094604,0.961060,-1.464844,3.479004,29.113770
2024-12-31 11:31:13.136211,-0.148926,-0.033325,0.997437,-2.319336,1.586914,31.066895
2024-12-31 11:31:13.145211,-0.138550,-0.002197,0.954346,-4.821777,3.601074,30.395508
2024-12-31 11:31:13.153211,-0.279053,-0.042969,1.025879,-2.014160,0.549316,29.418945
2024-12-31 11:31:13.162211,-0.318237,-0.043213,1.041016,-3.601074,-0.732422,29.968262
2024-12-31 11:31:13.170211,-0.346191,-0.016479,1.037598,-1.953125,-1.464844,26.489258
2024-12-31 11:31:13.179211,-0.230469,0.000244,1.036255,-5.187988,0.000000,21.362305
2024-12-31 11:31:13.187211,-0.186035,0.032959,0.991455,-3.662109,2.136230,17.639160
2024-12-31 11:31:13.196211,-0.191162,0.024414,1.002441,-5.126953,-0.610352,14.221191
2024-12-31 11:31:13.204211,-0.278320,0.014526,1.009521,-0.915527,1.403809,11.840820
2024-12-31 11:31:13.212211,-0.236694,0.048950,1.004517,-3.234863,-0.061035,8.056641
2024-12-31 11:31:13.221211,-0.048096,-0.007324,1.012573,-3.662109,1.098633,2.624512
2024-12-31 11:31:13.229211,-0.263550,-0.002441,1.015503,-4.760742,3.662109,-1.770020
2024-12-31 11:31:13.238211,-0.453979,-0.046143,0.996704,-2.746582,4.577637,-6.713867
2024-12-31 11:31:13.246211,-0.034302,0.124878,1.069458,-5.004883,1.770020,-2.563477
2024-12-31 11:31:13.255211,-0.252441,0.020874,0.987671,-0.671387,0.915527,-4.272461
2024-12-31 11:31:13.263211,-0.319824,-0.075806,0.976440,-3.051758,1.403809,-6.469727
2024-12-31 11:31:13.272211,-0.205444,-0.003052,1.000000,0.000000,0.854492,-8.789062
2024-12-31 11:31:13.280211,-0.170044,0.074341,1.026611,-2.929688,1.586914,-8.239746
2024-12-31 11:31:13.289211,-0.226929,0.001709,1.005615,-2.197266,1.464844,-11.779785
2024-12-31 11:31:13.297211,-0.131104,0.000122,0.994873,-2.075195,0.061035,-14.038086
2024-12-31 11:31:13.306211,-0.139160,-0.084961,0.980957,-2.197266,1.953125,-14.892578
2024-12-31 11:31:13.314211,-0.145020,-0.063599,1.039185,-4.943848,1.892090,-16.418457
2024-12-31 11:31:13.322211,-0.266968,0.042603,0.984131,-3.051758,-0.122070,-21.301270
2024-12-31 11:31:13.331211,-0.090332,-0.071655,0.956177,-4.638672,-1.831055,-20.507812
2024-12-31 11:31:13.339211,-0.136353,-0.015747,1.029785,-1.953125,-0.183105,-19.836426
2024-12-31 11:31:13.348211,-0.176270,-0.073608,1.063599,-4.882812,-1.708984,-20.141602
2024-12-31 11:31:13.356211,-0.083862,-0.046021,0.946533,-6.774902,0.000000,-20.751953
2024-12-31 11:31:13.365211,-0.120850,-0.005249,0.973267,-6.225586,1.098633,-24.658203
2024-12-31 11:31:13.373211,-0.121948,-0.036499,0.956787,0.122070,0.183105,-29.296875
2024-12-31 11:31:13.382211,-0.135376,-0.012573,1.087646,-5.187988,-1.220703,-26.367188
2024-12-31 11:31:13.390211,-0.160034,-0.014893,1.015137,-4.882812,2.258301,-26.245117
2024-12-31 11:31:13.399211,-0.096191,-0.072998,1.060059,-3.845215,0.122070,-29.724121
2024-12-31 11:31:13.407211,-0.110229,-0.008911,0.991089,-5.737305,-0.854492,-29.418945
2024-12-31 11:31:13.416211,-0.105713,0.009399,0.967285,-3.356934,0.854492,-29.418945
2024-12-31 11:31:13.424211,-0.045898,-0.020996,1.013550,-5.554199,3.967285,-30.517578
2024-12-31 11:31:13.433211,-0.118286,-0.064575,0.962891,-8.300781,3.662109,-32.043457
2024-12-31 11:31:13.441211,-0.023804,0.005493,1.042480,-4.272461,2.685547,-32.531738
2024-12-31 11:31:13.449211,0.035522,-0.024170,1.086670,-1.647949,-0.976562,-30.944824
2024-12-31 11:31:13.458211,0.048828,0.040161,1.048462,-5.249023,0.122070,-27.526855
2024-12-31 11:31:13.466211,0.059692,0.066040,0.982422,-3.356934,-0.061035,-26.062012
2024-12-31 11:31:13.475211,0.036621,0.022949,1.070923,-2.929688,0.000000,-28.442383
2024-12-31 11:31:13.483211,0.038818,-0.005493,0.989014,-2.868652,0.366211,-28.381348
2024-12-31 11:31:13.492211,0.070923,0.003418,0.962402,-2.258301,-3.784180,-27.160645
2024-12-31 11:31:13.500211,0.041748,-0.014771,0.952026,-5.249023,0.183105,-21.972656
2024-12-31 11:31:13.509211,0.071167,0.003052,1.010620,-7.568359,0.854492,-23.742676
2024-12-31 11:31:13.517211,0.119263,0.041870,0.991699,-6.958008,0.183105,-26.184082
2024-12-31 11:31:13.526211,0.156372,-0.017212,1.073242,-7.995605,2.563477,-28.259277
2024-12-31 11:31:13.534211,0.122681,-0.048828,0.992432,-10.498047,5.981445,-28.991699
2024-12-31 11:31:13.543211,0.117920,-0.016479,0.985474,-13.061523,6.835938,-26.245117
2024-12-31 11:31:13.551211,0.177490,-0.023438,1.018433,-10.437012,2.685547,-24.108887
2024-12-31 11:31:13.559211,0.272461,0.009644,1.099243,-3.295898,1.281738,-22.644043
2024-12-31 11:31:13.568211,0.180664,-0.054077,1.024780,-6.469727,2.014160,-20.263672
2024-12-31 11:31:13.576211,0.171509,-0.040161,0.944336,-7.324219,1.281738,-18.249512
2024-12-31 11:31:13.585211,0.271362,0.037720,1.060303,-6.286621,2.685547,-17.211914
2024-12-31 11:31:13.593211,0.136230,-0.088501,1.006348,-2.136230,2.929688,-18.737793
2024-12-31 11:31:13.602211,0.193481,-0.120483,0.973022,-5.859375,1.342773,-15.625000
2024-12-31 11:31:13.610211,0.198730,-0.087036,0.953369,1.831055,2.624512,-15.686035
2024-12-31 11:31:13.619211,0.294189,-0.018188,1.019653,-5.310059,0.549316,-11.535645
2024-12-31 11:31:13.627211,0.196899,-0.088257,1.005493,2.746582,3.173828,-11.596680
2024-12-31 11:31:13.636211,0.308716,-0.048828,1.007202,1.647949,0.549316,-7.019043
2024-12-31 11:31:13.644211,0.204468,-0.054199,1.001343,0.915527,0.793457,-5.432129
2024-12-31 11:31:13.653211,0.121338,-0.013672,0.998779,-1.586914,-0.061035,-2.197266
2024-12-31 11:31:13.661211,0.225220,-0.023804,0.996704,3.173828,-0.854492,1.464844
2024-12-31 11:31:13.670211,0.211792,-0.063477,1.045288,5.798340,-0.305176,7.751465
2024-12-31 11:31:13.678211,0.224854,-0.083618,1.027222,3.112793,0.000000,11.901855
2024-12-31 11:31:13.686211,0.203735,0.000366,1.056763,-0.366211,1.281738,12.451172
2024-12-31 11:31:13.695211,0.333618,-0.082886,0.981201,-2.319336,0.671387,18.737793
2024-12-31 11:31:13.703211,0.345825,-0.106934,0.936890,0.000000,2.563477,21.667480
2024-12-31 11:31:13.712211,0.077393,-0.033081,1.095337,-6.164551,0.671387,25.390625
2024-12-31 11:31:13.720211,0.175781,0.021851,1.052979,0.000000,-0.915527,33.569336
2024-12-31 11:31:13.729211,0.341064,-0.067993,0.858521,-1.220703,1.159668,35.217285
2024-12-31 11:31:13.737211,0.199097,-0.078003,1.004639,-0.183105,-0.244141,35.644531
2024-12-31 11:31:13.746211,0.295410,-0.074707,0.974976,0.610352,-0.793457,38.574219
2024-12-31 11:31:13.754211,0.137207,-0.026733,1.071045,-0.610352,-1.281738,42.053223
2024-12-31 11:31:13.763211,0.138794,-0.027222,0.961182,-1.770020,-0.427246,41.503906
2024-12-31 11:31:13.771211,0.104736,0.047363,1.039307,1.403809,-1.037598,42.297363
2024-12-31 11:31:13.780211,0.168335,0.018311,0.975464,-2.014160,-2.685547,43.640137
2024-12-31 11:31:13.788211,0.065063,-0.015381,1.005981,-3.601074,-1.281738,41.137695
2024-12-31 11:31:13.797211,0.141602,0.002075,0.990112,-2.136230,-0.671387,35.400391
2024-12-31 11:31:13.805211,0.050659,-0.028564,1.046021,-1.281738,3.662109,25.329590
2024-12-31 11:31:13.813211,0.104736,0.005981,0.996948,-3.173828,2.319336,20.568848
2024-12-31 11:31:13.822211,0.091187,-0.013428,0.978638,-2.380371,2.441406,18.554688
2024-12-31 11:31:13.830211,0.260498,-0.058838,0.946289,-3.112793,4.394531,15.014648
2024-12-31 11:31:13.839211,0.019043,0.041992,0.992798,-4.089355,3.234863,13.366699
2024-12-31 11:31:13.847211,-0.040771,0.000732,0.972168,-1.220703,3.723145,11.291504
2024-12-31 11:31:13.856211,0.039429,-0.013550,0.938599,-2.441406,2.624512,7.019043
2024-12-31 11:31:13.864211,0.037598,-0.023071,0.940430,-1.953125,2.136230,5.310059
2024-12-31 11:31:13.873211,0.036621,-0.027344,0.976074,-4.455566,3.417969,3.051758
2024-12-31 11:31:13.881211,-0.072144,-0.060303,1.093872,-5.798340,1.281738,1.953125
2024-12-31 11:31:13.890211,-0.179199,0.001587,1.086792,-2.746582,1.098633,5.615234
2024-12-31 11:31:13.898211,-0.143799,-0.057251,1.059937,0.122070,-1.342773,12.451172
2024-12-31 11:31:13.907211,-0.012573,-0.102417,0.954712,1.586914,-0.061035,16.418457
2024-12-31 11:31:13.915211,-0.069336,-0.085815,1.022705,-1.647949,2.624512,18.798828
2024-12-31 11:31:13.923211,-0.086182,0.027832,1.006470,-3.967285,1.953125,21.179199
2024-12-31 11:31:13.932211,0.055786,-0.029541,0.934937,-1.342773,1.098633,23.376465
2024-12-31 11:31:13.940211,-0.034302,0.025146,0.966187,-0.427246,3.112793,19.958496
2024-12-31 11:31:13.949211,-0.108276,-0.081543,0.956421,-4.516602,3.051758,12.634277
2024-12-31 11:31:13.957211,-0.085327,0.002441,0.906372,0.488281,4.394531,12.451172
2024-12-31 11:31:13.966211,-0.256592,0.060181,1.083740,2.563477,3.601074,19.348145
2024-12-31 11:31:13.974211,-0.183594,0.048340,1.022217,-0.671387,0.549316,18.249512
2024-12-31 11:31:13.983211,-0.340088,0.068237,1.026978,-1.831055,2.258301,14.709473
2024-12-31 11:31:13.991211,-0.285645,-0.005737,0.950562,-2.441406,2.746582,13.549805
2024-12-31 11:31:14.000211,-0.226807,0.000000,0.973999,-2.197266,1.037598,16.052246
2024-12-31 11:31:14.008211,-0.272949,0.008545,1.027832,-2.502441,0.427246,16.967773
2024-12-31 11:31:14.017211,-0.115723,-0.056519,0.947998,-4.577637,-1.159668,14.404297
2024-12-31 11:31:14.025211,-0.167847,-0.022461,0.999023,-2.380371,-0.305176,13.977051
2024-12-31 11:31:14.034211,-0.299927,0.036255,1.072876,-4.150391,-0.488281,12.817383
2024-12-31 11:31:14.042211,-0.268188,-0.015625,1.041504,-3.356934,-1.220703,12.878418
2024-12-31 11:31:14.050211,-0.278687,0.001465,1.004028,-3.112793,0.305176,12.207031
2024-12-31 11:31:14.059211,-0.194702,0.051270,1.010864,-2.990723,-1.708984,9.277344
2024-12-31 11:31:14.067211,-0.295288,-0.035034,1.008789,-3.356934,1.220703,6.530762
2024-12-31 11:31:14.076211,-0.170532,0.001221,1.006714,-2.075195,0.244141,1.342773
2024-12-31 11:31:14.084211,-0.114380,0.041260,1.011475,-3.967285,0.671387,2.014160
2024-12-31 11:31:14.093211,-0.310791,0.090454,1.007324,-3.295898,3.051758,1.281738
2024-12-31 11:31:14.101211,-0.366943,-0.002319,0.981934,-3.601074,3.356934,-4.821777
2024-12-31 11:31:14.110211,-0.248291,0.000244,1.028198,-4.516602,0.427246,-4.821777
2024-12-31 11:31:14.118211,-0.178833,-0.015503,1.014893,-2.990723,0.732422,-6.958008
2024-12-31 11:31:14.127211,-0.211060,0.009155,1.030518,-6.469727,3.784180,-5.737305
2024-12-31 11:31:14.135211,-0.178833,0.059448,1.067505,-2.868652,-0.793457,-7.385254
2024-12-31 11:31:14.144211,-0.257690,-0.051880,1.028198,-4.760742,0.000000,-6.835938
2024-12-31 11:31:14.152211,-0.180664,0.011230,1.111084,-9.155273,1.831055,-7.141113
2024-12-31 11:31:14.161211,-0.232300,-0.025024,0.999878,0.610352,0.732422,-11.474609
2024-12-31 11:31:14.169211,-0.277710,-0.075684,0.984985,-3.662109,1.770020,-12.878418
2024-12-31 11:31:14.177211,-0.232666,-0.056641,1.014282,-2.746582,1.037598,-15.380859
2024-12-31 11:31:14.186211,-0.236572,-0.047852,1.024658,-6.164551,1.037598,-16.357422
2024-12-31 11:31:14.194211,-0.101685,-0.038208,1.021240,-3.845215,-1.953125,-17.761230
2024-12-31 11:31:14.203211,-0.227295,0.018066,1.010132,-5.249023,0.122070,-19.836426
2024-12-31 11:31:14.211211,-0.074463,0.077271,1.062012,-4.333496,-1.708984,-20.690918
2024-12-31 11:31:14.220211,-0.114624,0.051270,1.114258,-3.417969,-0.549316,-19.836426
2024-12-31 11:31:14.228211,-0.128540,-0.040405,1.011475,-1.647949,-1.281738,-20.935059
2024-12-31 11:31:14.237211,-0.153442,-0.012939,0.998047,-0.366211,1.281738,-26.000977
2024-12-31 11:31:14.245211,-0.169067,0.028198,0.955444,-5.981445,0.305176,-29.785156
2024-12-31 11:31:14.254211,-0.124878,-0.067261,0.961548,0.549316,-1.464844,-32.714844
2024-12-31 11:31:14.262211,-0.157959,0.005737,1.037720,-2.441406,-0.671387,-28.808594
2024-12-31 11:31:14.271211,-0.130493,0.026245,1.031250,-4.150391,0.671387,-32.287598
2024-12-31 11:31:14.279211,-0.190308,-0.095215,1.069824,-6.225586,4.577637,-35.949707
2024-12-31 11:31:14.287211,-0.041626,0.104248,0.960205,-4.699707,3.540039,-39.367676
2024-12-31 11:31:14.296211,-0.068970,0.070435,0.998779,-7.019043,1.098633,-43.762207
2024-12-31 11:31:14.304211,0.018066,0.086914,1.062256,-7.568359,1.525879,-42.968750
2024-12-31 11:31:14.313211,0.166626,0.026001,1.125854,-0.732422,-0.122070,-46.997070
2024-12-31 11:31:14.321211,0.107788,0.073364,1.058594,-4.943848,-1.770020,-50.109863
2024-12-31 11:31:14.330211,0.143677,0.057739,0.978760,-1.098633,1.281738,-53.344727
2024-12-31 11:31:14.338211,0.090088,0.026611,0.949219,-3.356934,1.953125,-55.786133
2024-12-31 11:31:14.347211,0.099487,-0.029053,1.043579,-3.051758,-0.854492,-55.480957
2024-12-31 11:31:14.355211,0.116821,-0.013062,1.000366,-2.441406,-1.037598,-57.556152
2024-12-31 11:31:14.364211,0.188721,-0.041260,1.089600,-2.197266,0.671387,-60.424805
2024-12-31 11:31:14.372211,0.178589,-0.033813,1.000854,-6.591797,2.563477,-58.105469
2024-12-31 11:31:14.381211,0.147217,-0.044922,1.041626,-5.126953,2.929688,-56.152344
2024-12-31 11:31:14.389211,0.124268,-0.200562,1.008667,-2.319336,0.061035,-55.114746
2024-12-31 11:31:14.398211,0.190430,-0.144043,1.103516,-5.004883,2.441406,-51.208496
2024-12-31 11:31:14.406211,0.242188,-0.161743,1.053467,-3.601074,3.051758,-43.823242
2024-12-31 11:31:14.414211,0.268188,-0.070679,1.050537,-3.845215,2.685547,-36.804199
2024-12-31 11:31:14.423211,0.226074,-0.112305,1.036621,-5.432129,3.479004,-32.653809
2024-12-31 11:31:14.431211,0.307373,-0.128906,0.976929,-2.136230,2.319336,-29.113770
2024-12-31 11:31:14.440211,0.247070,-0.096191,1.075073,-6.835938,1.647949,-24.291992
2024-12-31 11:31:14.448211,0.319214,-0.054688,1.013428,-5.126953,4.089355,-20.629883
2024-12-31 11:31:14.457211,0.283691,-0.118042,1.053833,-4.943848,1.953125,-16.235352
2024-12-31 11:31:14.465211,0.276123,-0.080811,0.979614,-7.263184,0.549316,-8.789062
2024-12-31 11:31:14.474211,0.344360,-0.072388,1.002319,-4.028320,3.723145,-5.554199
2024-12-31 11:31:14.482211,0.136475,-0.036377,0.985352,-4.821777,5.920410,-1.403809
2024-12-31 11:31:14.491211,0.318604,-0.069092,0.992676,-2.868652,-1.525879,6.713867
2024-12-31 11:31:14.499211,0.369873,-0.079468,1.006958,-1.342773,-6.164551,14.709473
2024-12-31 11:31:14.508211,-0.006592,-0.072144,1.082153,-0.915527,-0.793457,20.568848
2024-12-31 11:31:14.516211,0.342163,-0.057617,0.999878,-0.549316,2.868652,22.521973
2024-12-31 11:31:14.524211,0.059937,-0.156250,1.095825,-2.136230,0.305176,23.681641
2024-12-31 11:31:14.533211,0.197754,-0.149902,0.992310,-2.075195,0.610352,30.151367
2024-12-31 11:31:14.541211,0.358032,-0.141479,0.975098,-0.488281,-0.671387,36.437988
2024-12-31 11:31:14.550211,0.348145,-0.112793,0.929321,-5.004883,2.075195,39.306641
2024-12-31 11:31:14.558211,0.217651,0.008179,1.071777,-0.183105,-0.549316,44.250488
2024-12-31 11:31:14.567211,0.020142,0.048340,1.083252,-3.051758,-0.671387,44.677734
2024-12-31 11:31:14.575211,0.177002,-0.070190,0.987915,0.610352,-1.647949,46.142578
2024-12-31 11:31:14.584211,0.088989,-0.049438,0.990356,-3.295898,0.000000,43.090820
2024-12-31 11:31:14.592211,0.115479,0.021118,1.063721,-1.708984,0.671387,39.428711
2024-12-31 11:31:14.601211,0.256104,-0.008423,0.941284,-1.098633,0.854492,38.818359
2024-12-31 11:31:14.609211,0.169556,0.017944,0.949951,-1.220703,1.098633,35.217285
2024-12-31 11:31:14.618211,0.000366,-0.080322,1.030396,-2.258301,0.366211,31.555176
2024-12-31 11:31:14.626211,0.124634,-0.000488,1.052002,-2.746582,1.708984,30.212402
2024-12-31 11:31:14.635211,0.057617,-0.053223,1.064453,-2.502441,1.342773,25.817871
2024-12-31 11:31:14.643211,0.146484,0.030762,0.968994,-4.272461,2.807617,24.169922
2024-12-31 11:31:14.651211,0.091797,-0.063477,0.943481,-1.403809,2.685547,23.559570
2024-12-31 11:31:14.660211,0.069824,-0.050537,0.960205,-0.305176,1.892090,25.756836
2024-12-31 11:31:14.668211,0.019897,-0.043213,0.990967,-2.807617,2.441406,24.169922
2024-12-31 11:31:14.677211,0.098877,-0.052490,0.953491,-0.061035,-0.183105,22.888184
2024-12-31 11:31:14.685211,-0.009399,-0.077881,0.984619,2.136230,-0.427246,21.057129
2024-12-31 11:31:14.694211,0.094604,-0.090942,0.999390,-0.183105,0.366211,18.188477
2024-12-31 11:31:14.702211,0.116211,-0.060791,0.956665,-3.662109,2.319336,17.822266
2024-12-31 11:31:14.711211,-0.005005,-0.031494,1.010498,-2.075195,1.281738,18.249512
2024-12-31 11:31:14.719211,0.043091,-0.042480,1.043579,1.342773,2.197266,17.150879
2024-12-31 11:31:14.728211,0.020508,-0.091064,1.034302,-0.366211,3.234863,14.221191
2024-12-31 11:31:14.736211,-0.040039,-0.000977,1.024170,-3.662109,0.488281,12.451172
2024-12-31 11:31:14.745211,0.031982,-0.017944,0.929077,-3.417969,-0.610352,10.253906
2024-12-31 11:31:14.753211,-0.066895,0.037598,0.959106,-3.417969,1.220703,6.530762
2024-12-31 11:31:14.762211,-0.147339,-0.050415,1.001831,-7.446289,-0.793457,7.629395
2024-12-31 11:31:14.770211,-0.118896,-0.013428,0.945923,-4.150391,0.793457,12.939453
2024-12-31 11:31:14.778211,-0.204712,-0.116089,0.914673,-1.708984,2.624512,22.460938
2024-12-31 11:31:14.787211,-0.114136,0.006470,1.043701,-8.117676,1.525879,29.174805
2024-12-31 11:31:14.795211,-0.368896,0.004395,1.075562,0.854492,0.488281,28.991699
2024-12-31 11:31:14.804211,-0.206909,0.149170,1.052979,-1.464844,1.281738,26.916504
2024-12-31 11:31:14.812211,-0.202759,-0.028687,0.948853,-7.507324,2.685547,23.498535
2024-12-31 11:31:14.821211,-0.239014,0.156006,0.932861,-2.929688,4.028320,26.245117
2024-12-31 11:31:14.829211,-0.205688,0.108398,1.017456,-6.164551,1.342773,26.977539
2024-12-31 11:31:14.838211,-0.246216,-0.013672,0.935059,-3.906250,-1.037598,26.672363
2024-12-31 11:31:14.846211,-0.359741,-0.071289,0.989624,-0.122070,-0.427246,27.648926
2024-12-31 11:31:14.855211,-0.400146,-0.063354,1.021484,-5.615234,0.427246,27.221680
2024-12-31 11:31:14.863211,-0.125122,0.093872,0.983521,-1.647949,0.732422,26.123047
2024-12-31 11:31:14.872211,-0.292236,0.079346,1.008545,-6.835938,1.037598,20.629883
