millis,ax,ay,az,gx,gy,gz
2024-12-31 11:32:08.025959,-0.005249,0.305420,0.957153,-2.929688,0.915527,-0.671387
2024-12-31 11:32:08.033959,-0.005737,0.306030,0.954712,-3.234863,0.915527,-0.671387
2024-12-31 11:32:08.042959,-0.005981,0.308105,0.955444,-3.540039,0.854492,-0.671387
2024-12-31 11:32:08.050959,-0.005615,0.306396,0.954102,-3.051758,0.854492,-0.732422
2024-12-31 11:32:08.058959,-0.004395,0.308594,0.955811,-3.051758,0.793457,-0.610352
2024-12-31 11:32:08.067959,-0.002441,0.307007,0.954346,-2.929688,0.854492,-0.732422
2024-12-31 11:32:08.075959,-0.002930,0.307861,0.956055,-3.112793,0.915527,-0.732422
2024-12-31 11:32:08.084959,-0.001953,0.306763,0.956665,-2.868652,0.915527,-0.732422
2024-12-31 11:32:08.092959,-0.001709,0.305298,0.955933,-3.295898,0.915527,-0.732422
2024-12-31 11:32:08.101959,-0.002563,0.306885,0.956177,-3.173828,0.793457,-0.732422
2024-12-31 11:32:08.109959,-0.003540,0.305908,0.953857,-2.929688,0.854492,-0.793457
2024-12-31 11:32:08.118959,-0.004761,0.306274,0.955688,-3.173828,0.915527,-0.671387
2024-12-31 11:32:08.126959,-0.006104,0.306030,0.954712,-3.356934,0.793457,-0.732422
2024-12-31 11:32:08.135959,-0.006958,0.307373,0.957275,-2.929688,0.793457,-0.793457
2024-12-31 11:32:08.143959,-0.005127,0.306274,0.954590,-3.295898,0.915527,-0.854492
2024-12-31 11:32:08.152959,-0.004517,0.306274,0.953857,-3.173828,0.793457,-0.793457
2024-12-31 11:32:08.160959,-0.004761,0.307739,0.954956,-3.173828,0.793457,-0.732422
2024-12-31 11:32:08.169959,-0.002075,0.307129,0.954590,-3.173828,0.854492,-0.793457
2024-12-31 11:32:08.177959,-0.001831,0.307861,0.954590,-2.990723,0.793457,-0.732422
2024-12-31 11:32:08.185959,-0.002686,0.309082,0.953735,-3.112793,0.793457,-0.671387
2024-12-31 11:32:08.194959,-0.090088,0.385498,1.031128,-2.746582,2.075195,-0.976562
2024-12-31 11:32:08.202959,-0.062256,0.451050,1.036621,13.244629,22.644043,-5.493164
2024-12-31 11:32:08.211959,-0.056519,0.414551,0.938965,43.579102,50.842285,-17.333984
2024-12-31 11:32:08.219959,-0.009033,0.359375,0.940918,69.885254,62.683105,-32.775879
2024-12-31 11:32:08.228959,0.069580,0.228149,0.912720,89.355469,63.842773,-38.513184
2024-12-31 11:32:08.236959,0.064941,0.158569,0.970581,87.768555,55.419922,-35.034180
2024-12-31 11:32:08.245959,0.081421,0.127563,0.970215,65.063477,46.813965,-28.503418
2024-12-31 11:32:08.253959,0.067871,0.184814,0.989014,42.602539,42.297363,-17.272949
2024-12-31 11:32:08.262959,0.084961,0.225830,0.949341,27.343750,39.978027,-12.145996
2024-12-31 11:32:08.270959,0.095459,0.249878,0.936523,26.000977,36.254883,-10.803223
2024-12-31 11:32:08.279959,0.102417,0.231323,0.947876,32.653809,30.029297,-12.207031
2024-12-31 11:32:08.287959,0.147949,0.182739,0.953125,37.231445,24.047852,-13.610840
2024-12-31 11:32:08.296959,0.134888,0.155762,0.975586,33.630371,19.714355,-11.535645
2024-12-31 11:32:08.304959,0.033447,0.201050,1.049072,22.399902,16.174316,-7.690430
2024-12-31 11:32:08.312959,0.115234,0.155396,0.954590,11.718750,16.296387,-5.615234
2024-12-31 11:32:08.321959,0.085571,0.210083,0.981689,6.530762,14.648438,-2.563477
2024-12-31 11:32:08.329959,0.111816,0.195312,0.948730,5.798340,12.573242,-3.417969
2024-12-31 11:32:08.338959,0.089355,0.200073,0.981689,7.995605,7.812500,-3.723145
2024-12-31 11:32:08.346959,0.098022,0.179810,0.982788,9.399414,6.774902,-4.638672
2024-12-31 11:32:08.355959,0.098999,0.173584,0.987549,7.995605,6.958008,-4.150391
2024-12-31 11:32:08.363959,0.103760,0.174438,0.984741,5.554199,7.690430,-2.990723
2024-12-31 11:32:08.372959,0.106934,0.178101,0.979248,3.356934,7.934570,-1.831055
2024-12-31 11:32:08.380959,0.109741,0.182007,0.973755,1.464844,6.835938,-1.342773
2024-12-31 11:32:08.389959,0.102051,0.189941,0.984253,0.610352,5.126953,-1.159668
2024-12-31 11:32:08.397959,0.099854,0.190430,0.986572,1.464844,5.249023,-1.586914
2024-12-31 11:32:08.406959,0.103271,0.190674,0.983032,3.051758,7.019043,-2.197266
2024-12-31 11:32:08.414959,0.098389,0.191406,0.986328,5.737305,8.483887,-2.624512
2024-12-31 11:32:08.423959,0.103638,0.186279,0.984375,7.873535,10.192871,-3.540039
2024-12-31 11:32:08.431959,0.109741,0.178223,0.981323,9.643555,11.352539,-4.028320
2024-12-31 11:32:08.439959,0.103882,0.180542,0.989502,10.681152,11.657715,-4.394531
2024-12-31 11:32:08.448959,0.113403,0.172119,0.982056,11.840820,12.878418,-4.943848
2024-12-31 11:32:08.456959,0.120850,0.166138,0.979980,12.268066,13.061523,-5.310059
2024-12-31 11:32:08.465959,0.122559,0.161011,0.982300,12.573242,12.512207,-5.371094
2024-12-31 11:32:08.473959,0.131226,0.152710,0.981079,11.779785,11.413574,-5.004883
2024-12-31 11:32:08.482959,0.126343,0.156616,0.987061,10.559082,10.742188,-4.272461
2024-12-31 11:32:08.490959,0.143555,0.153076,0.980591,9.399414,10.681152,-4.028320
2024-12-31 11:32:08.499959,0.114502,0.152466,0.979614,8.178711,10.437012,-3.967285
2024-12-31 11:32:08.507959,0.119629,0.164062,0.989136,7.690430,10.070801,-3.906250
2024-12-31 11:32:08.516959,0.119141,0.168335,0.996704,9.460449,11.474609,-4.760742
2024-12-31 11:32:08.524959,0.171753,0.178223,0.994629,13.061523,15.502930,-6.103516
2024-12-31 11:32:08.533959,0.296143,0.171387,0.989746,15.380859,18.798828,-9.094238
2024-12-31 11:32:08.541959,0.362305,0.200562,0.993774,14.770508,19.104004,-11.596680
2024-12-31 11:32:08.549959,0.461914,0.064209,0.772339,1.586914,23.803711,-13.916016
2024-12-31 11:32:08.558959,0.111450,0.242310,1.045532,1.770020,19.165039,-15.441895
2024-12-31 11:32:08.566959,0.202271,-0.124634,0.816528,17.150879,11.169434,-19.470215
2024-12-31 11:32:08.575959,0.116699,-0.020630,1.125610,44.372559,8.728027,-20.385742
2024-12-31 11:32:08.583959,0.219116,-0.140991,0.910767,7.385254,15.930176,-5.859375
2024-12-31 11:32:08.592959,0.145874,0.206543,1.123291,-15.991211,18.249512,9.216309
2024-12-31 11:32:08.600959,0.071411,0.033813,0.711670,-22.521973,19.409180,11.291504
2024-12-31 11:32:08.609959,0.312866,0.285156,0.889282,33.996582,2.685547,2.136230
2024-12-31 11:32:08.617959,0.138428,0.501709,0.982056,23.498535,0.732422,-0.488281
2024-12-31 11:32:08.626959,-0.085815,0.146240,1.136963,12.512207,8.056641,-14.587402
2024-12-31 11:32:08.634959,0.106079,0.078125,0.997681,43.945312,8.239746,-22.033691
2024-12-31 11:32:08.643959,0.338989,0.110229,0.909180,42.541504,7.690430,-20.324707
2024-12-31 11:32:08.651959,0.009277,0.067261,1.014282,34.667969,3.662109,-19.042969
2024-12-31 11:32:08.660959,0.271729,0.057251,0.964355,33.752441,-3.295898,-14.038086
2024-12-31 11:32:08.668959,0.230957,-0.011963,0.950317,34.973145,-2.319336,-17.700195
2024-12-31 11:32:08.676959,-0.009644,0.075439,1.044067,28.137207,1.831055,-12.390137
2024-12-31 11:32:08.685959,-0.033936,-0.048462,0.984863,26.184082,-0.915527,-5.249023
2024-12-31 11:32:08.693959,0.108032,-0.145264,0.986816,45.349121,-15.258789,4.028320
2024-12-31 11:32:08.702959,0.053223,0.138916,1.115845,59.387207,-9.704590,-6.591797
2024-12-31 11:32:08.710959,0.087769,0.005493,1.013550,42.907715,2.563477,0.183105
2024-12-31 11:32:08.719959,0.075562,0.110474,1.005859,37.719727,6.958008,-0.488281
2024-12-31 11:32:08.727959,0.073975,0.080566,0.981445,33.630371,5.004883,-0.976562
2024-12-31 11:32:08.736959,0.140137,0.040405,1.045776,13.061523,2.014160,-0.183105
2024-12-31 11:32:08.744959,-0.593872,-0.322754,0.972290,-19.775391,4.089355,6.164551
2024-12-31 11:32:08.753959,0.041016,-0.152588,1.008057,8.605957,-3.051758,13.488770
2024-12-31 11:32:08.761959,0.445801,0.114502,1.140991,28.015137,-0.183105,16.662598
2024-12-31 11:32:08.770959,-0.063354,0.013672,0.996704,9.338379,-1.220703,22.888184
2024-12-31 11:32:08.778959,0.179565,0.145020,1.089111,-9.826660,-0.854492,32.104492
2024-12-31 11:32:08.786959,0.187866,0.128418,1.130981,-12.268066,-2.197266,31.799316
2024-12-31 11:32:08.795959,0.050903,-0.000732,0.999268,-19.958496,-6.530762,34.545898
2024-12-31 11:32:08.803959,0.114380,-0.020142,1.049927,-29.602051,-7.446289,36.865234
2024-12-31 11:32:08.812959,0.093384,-0.070923,1.031250,-37.475586,-8.300781,39.550781
2024-12-31 11:32:08.820959,0.065674,-0.067749,1.008911,-49.316406,-5.676270,42.053223
2024-12-31 11:32:08.829959,0.080322,-0.052246,0.987793,-52.062988,-3.845215,45.776367
2024-12-31 11:32:08.837959,0.084351,-0.025757,0.955322,-49.987793,-4.577637,47.546387
2024-12-31 11:32:08.846959,0.104126,0.022705,0.938232,-48.217773,-6.103516,46.447754
2024-12-31 11:32:08.854959,0.108398,0.049194,0.940796,-39.733887,-8.300781,43.823242
2024-12-31 11:32:08.863959,0.104370,0.073120,0.956055,-28.869629,-10.192871,40.649414
2024-12-31 11:32:08.871959,0.131226,0.099854,0.979492,-20.324707,-12.573242,36.193848
2024-12-31 11:32:08.880959,0.141846,0.080200,0.939087,-12.329102,-13.122559,33.874512
2024-12-31 11:32:08.888959,0.101074,0.121826,0.977661,-9.521484,-18.737793,32.531738
2024-12-31 11:32:08.897959,0.120850,0.109253,1.010864,-1.770020,-24.047852,31.066895
2024-12-31 11:32:08.905959,0.131104,0.117188,1.007568,0.793457,-24.658203,31.311035
2024-12-31 11:32:08.913959,0.136841,0.119873,1.023315,0.854492,-26.489258,32.714844
2024-12-31 11:32:08.922959,0.155762,0.144043,1.015503,-3.479004,-27.099609,34.851074
2024-12-31 11:32:08.930959,0.129395,0.135254,0.985474,-5.737305,-26.062012,33.813477
2024-12-31 11:32:08.939959,0.153931,0.135132,0.984741,-5.065918,-26.000977,32.775879
2024-12-31 11:32:08.947959,0.160767,0.145996,0.991699,-5.371094,-25.207520,30.212402
2024-12-31 11:32:08.956959,0.172485,0.171875,0.993774,-9.155273,-23.132324,30.151367
2024-12-31 11:32:08.964959,0.187500,0.213623,0.994995,-15.441895,-19.897461,28.686523
2024-12-31 11:32:08.973959,0.181152,0.214966,0.964844,-16.967773,-16.418457,24.658203
2024-12-31 11:32:08.981959,0.172729,0.212402,0.958008,-16.235352,-13.366699,21.667480
2024-12-31 11:32:08.990959,0.156982,0.208252,0.948975,-13.000488,-11.474609,18.554688
2024-12-31 11:32:08.998959,0.145142,0.174927,0.947144,-6.591797,-10.314941,13.977051
2024-12-31 11:32:09.007959,0.137085,0.145020,0.962402,0.244141,-9.887695,11.291504
2024-12-31 11:32:09.015959,0.123047,0.103516,0.967407,7.507324,-11.230469,12.634277
2024-12-31 11:32:09.024959,0.138062,0.123413,1.011963,15.563965,-12.268066,12.695312
2024-12-31 11:32:09.032959,0.103394,0.082764,0.994263,25.634766,-13.366699,13.000488
2024-12-31 11:32:09.040959,0.110962,0.124268,0.994263,25.878906,-13.854980,15.197754
2024-12-31 11:32:09.049959,0.133301,0.183350,1.038940,26.062012,-15.014648,16.479492
2024-12-31 11:32:09.057959,0.041626,-0.028687,0.987427,31.433105,-16.235352,15.502930
2024-12-31 11:32:09.066959,0.120728,0.039062,1.009399,22.888184,-13.671875,16.906738
2024-12-31 11:32:09.074959,0.103394,0.108643,1.019043,21.667480,-11.901855,16.906738
2024-12-31 11:32:09.083959,0.040405,0.005371,0.977539,22.338867,-10.559082,19.226074
2024-12-31 11:32:09.091959,0.099243,0.060181,0.984375,23.437500,-9.460449,19.409180
2024-12-31 11:32:09.100959,0.086060,0.086670,0.996582,25.512695,-9.155273,18.493652
2024-12-31 11:32:09.108959,0.045166,0.074585,0.994263,29.235840,-8.850098,14.282227
2024-12-31 11:32:09.117959,0.052490,0.041504,0.970703,35.400391,-8.422852,10.437012
2024-12-31 11:32:09.125959,0.060547,0.119995,1.006958,37.780762,-6.896973,7.995605
2024-12-31 11:32:09.134959,0.003174,0.025391,0.962891,43.518066,-7.141113,6.835938
2024-12-31 11:32:09.142959,0.054565,0.112915,1.000244,50.048828,-7.385254,7.019043
2024-12-31 11:32:09.150959,0.001099,0.024780,0.997070,56.884766,-6.652832,6.225586
2024-12-31 11:32:09.159959,0.061035,0.138672,0.994995,51.391602,-5.493164,6.958008
2024-12-31 11:32:09.167959,0.031250,0.151855,1.052979,54.260254,-7.507324,4.760742
2024-12-31 11:32:09.176959,0.003784,0.099854,0.989624,57.800293,-8.972168,0.732422
2024-12-31 11:32:09.184959,0.141724,-0.022339,1.116211,62.500000,-9.582520,-1.281738
2024-12-31 11:32:09.193959,0.046631,0.113770,1.046509,25.817871,-19.104004,5.249023
2024-12-31 11:32:09.201959,0.003906,0.081177,1.020264,-0.793457,-20.324707,11.230469
2024-12-31 11:32:09.210959,0.016602,0.108032,1.035522,-4.028320,-16.601562,7.263184
2024-12-31 11:32:09.218959,0.014771,-0.027100,1.000977,0.976562,-17.150879,1.708984
2024-12-31 11:32:09.227959,0.006226,0.000000,1.003662,0.183105,-16.601562,-1.953125
2024-12-31 11:32:09.235959,0.000000,0.004395,1.006958,-3.601074,-15.747070,-0.244141
2024-12-31 11:32:09.244959,-0.002197,-0.006226,1.002808,-7.507324,-14.282227,0.183105
2024-12-31 11:32:09.252959,0.001709,-0.055542,1.028076,-10.131836,-12.695312,0.305176
2024-12-31 11:32:09.261959,-0.013550,-0.035645,1.022217,-7.995605,-12.084961,-1.708984
2024-12-31 11:32:09.269959,0.015625,0.004272,1.012207,-12.329102,-7.019043,-1.220703
2024-12-31 11:32:09.277959,0.007324,0.016357,1.039673,-20.080566,-3.112793,4.821777
2024-12-31 11:32:09.286959,-0.007324,-0.020508,1.026245,-16.357422,-2.746582,10.192871
2024-12-31 11:32:09.294959,-0.018433,-0.016357,1.009033,-6.591797,-1.037598,6.591797
2024-12-31 11:32:09.303959,-0.021729,-0.013916,1.010254,-5.004883,-0.976562,5.310059
2024-12-31 11:32:09.311959,-0.019043,-0.015503,1.009033,-4.943848,-0.793457,5.065918
2024-12-31 11:32:09.320959,-0.015381,-0.025146,1.008301,-5.371094,-0.549316,4.028320
2024-12-31 11:32:09.328959,-0.015137,-0.028198,1.010742,-5.432129,-0.671387,2.075195
2024-12-31 11:32:09.337959,-0.012329,-0.018433,1.008301,-5.493164,-0.793457,0.305176
2024-12-31 11:32:09.345959,-0.005127,-0.020386,1.011230,-3.845215,-0.366211,-0.549316
2024-12-31 11:32:09.354959,-0.005859,-0.013306,1.007324,-3.295898,0.122070,-0.305176
2024-12-31 11:32:09.362959,-0.005615,-0.012817,1.007080,-3.479004,0.305176,0.000000
2024-12-31 11:32:09.371959,-0.005005,-0.013550,1.005005,-3.723145,0.244141,-0.122070
2024-12-31 11:32:09.379959,-0.008423,-0.012817,1.005737,-4.394531,0.244141,-0.488281
2024-12-31 11:32:09.388959,-0.016357,-0.013306,0.996216,-5.554199,0.305176,-0.915527
2024-12-31 11:32:09.396959,-0.011963,-0.008301,1.018799,-8.117676,1.342773,-1.098633
2024-12-31 11:32:09.404959,-0.010132,0.003174,1.003052,-7.995605,1.403809,-1.464844
2024-12-31 11:32:09.413959,-0.010742,-0.001465,1.007812,-5.126953,0.671387,-2.380371
2024-12-31 11:32:09.421959,-0.009399,-0.006836,1.009277,-4.333496,0.488281,-1.831055
2024-12-31 11:32:09.430959,-0.008911,-0.002075,1.004517,-4.882812,0.488281,-1.586914
2024-12-31 11:32:09.438959,-0.007812,0.000610,1.005493,-4.089355,0.427246,-2.075195
2024-12-31 11:32:09.447959,-0.006592,-0.000366,1.004150,-2.929688,0.366211,-2.502441
2024-12-31 11:32:09.455959,-0.005493,0.000366,1.006348,-1.525879,0.427246,-2.685547
2024-12-31 11:32:09.464959,-0.009521,-0.002197,1.005737,-0.549316,0.305176,-2.075195
2024-12-31 11:32:09.472959,-0.011597,-0.003052,1.006958,-0.427246,0.427246,-1.647949
2024-12-31 11:32:09.481959,-0.012573,-0.006958,1.006470,-0.671387,0.549316,-1.586914
2024-12-31 11:32:09.489959,-0.011353,-0.006470,1.004272,-0.915527,0.610352,-1.892090
2024-12-31 11:32:09.498959,-0.011475,-0.006958,1.006592,-1.220703,0.732422,-2.502441
2024-12-31 11:32:09.506959,-0.009644,-0.005249,1.008423,-1.281738,0.976562,-2.380371
2024-12-31 11:32:09.514959,-0.011353,-0.005859,1.005249,-0.976562,0.915527,-1.708984
2024-12-31 11:32:09.523959,-0.010010,-0.007202,1.009644,-0.610352,0.976562,-0.671387
2024-12-31 11:32:09.531959,-0.011963,-0.003662,1.004272,-1.892090,0.976562,-0.549316
2024-12-31 11:32:09.540959,-0.010498,-0.008179,1.007080,-2.441406,1.220703,-0.427246
2024-12-31 11:32:09.548959,-0.017212,-0.005371,1.007446,-2.990723,1.159668,-0.244141
2024-12-31 11:32:09.557959,-0.067749,0.011719,1.008545,-2.929688,1.098633,0.122070
2024-12-31 11:32:09.565959,-0.026367,-0.019531,1.010376,-3.295898,0.793457,1.403809
2024-12-31 11:32:09.574959,-0.056396,-0.000488,1.007568,-3.479004,0.793457,0.915527
2024-12-31 11:32:09.582959,0.018677,-0.035522,1.004639,-4.150391,1.037598,1.220703
2024-12-31 11:32:09.591959,-0.036743,-0.026245,1.002563,-4.089355,3.662109,1.831055
2024-12-31 11:32:09.599959,0.035645,-0.020386,1.008667,-6.347656,3.906250,3.540039
2024-12-31 11:32:09.608959,0.078247,0.002686,1.007324,-6.530762,2.441406,1.159668
2024-12-31 11:32:09.616959,0.016602,0.001953,1.005371,-4.943848,1.586914,-2.197266
2024-12-31 11:32:09.625959,-0.000732,-0.000610,1.006226,-4.089355,1.770020,-1.708984
2024-12-31 11:32:09.633959,0.030029,-0.029053,1.004150,-3.479004,1.708984,-1.037598
2024-12-31 11:32:09.641959,0.072266,-0.056763,1.011475,-2.807617,2.075195,-0.915527
2024-12-31 11:32:09.650959,0.215332,-0.004639,1.013062,-0.793457,3.295898,3.662109
2024-12-31 11:32:09.658959,0.267090,0.010132,0.998779,1.892090,2.624512,0.671387
2024-12-31 11:32:09.667959,-0.161499,-0.052734,0.989014,0.732422,4.882812,-1.342773
2024-12-31 11:32:09.675959,0.505615,0.052979,1.007324,-6.286621,6.652832,2.441406
2024-12-31 11:32:09.684959,-0.033447,-0.042847,0.984009,-7.568359,9.338379,7.080078
2024-12-31 11:32:09.692959,-1.160767,0.015991,1.008545,-0.061035,6.591797,7.324219
2024-12-31 11:32:09.701959,0.733398,0.229126,0.995605,-4.028320,-5.004883,5.615234
2024-12-31 11:32:09.709959,-0.469727,-0.069092,0.991211,-7.751465,18.554688,-2.136230
2024-12-31 11:32:09.718959,-0.127319,0.099854,1.026123,1.525879,1.281738,6.774902
2024-12-31 11:32:09.726959,0.440308,0.267456,1.116089,1.403809,-1.892090,-10.498047
2024-12-31 11:32:09.735959,0.052612,0.011719,1.062256,-2.441406,9.582520,-6.958008
2024-12-31 11:32:09.743959,0.127563,0.065796,0.938110,1.037598,1.647949,-6.835938
2024-12-31 11:32:09.751959,-0.386963,0.208862,0.940674,2.136230,-3.906250,-17.639160
2024-12-31 11:32:09.760959,-0.647339,-0.099976,0.915894,-2.380371,-2.258301,-22.949219
2024-12-31 11:32:09.768959,0.130737,-0.068237,1.009155,3.051758,-6.958008,-25.756836
2024-12-31 11:32:09.777959,0.184082,0.143066,1.094604,-1.464844,-1.220703,-25.695801
2024-12-31 11:32:09.785959,-0.081543,0.264404,1.017822,-2.319336,-2.441406,-20.019531
2024-12-31 11:32:09.794959,-0.040283,0.168945,0.975342,5.126953,-0.427246,-18.981934
2024-12-31 11:32:09.802959,-0.126831,0.259033,0.989014,-2.075195,-0.305176,-20.935059
2024-12-31 11:32:09.811959,-0.085205,0.254395,1.025269,-4.394531,1.708984,-18.554688
2024-12-31 11:32:09.819959,0.079712,0.371338,1.008667,-6.408691,-0.976562,-18.249512
2024-12-31 11:32:09.828959,-0.009033,0.174194,1.005493,-5.493164,2.807617,-20.141602
2024-12-31 11:32:09.836959,0.166260,0.250122,0.998291,-3.845215,-1.342773,-27.343750
2024-12-31 11:32:09.845959,-0.339355,0.035522,1.021240,2.502441,2.929688,-23.010254
2024-12-31 11:32:09.853959,0.023682,0.205811,1.005981,-0.366211,-0.122070,-37.231445
2024-12-31 11:32:09.862959,-0.115234,-0.002808,1.007202,-1.220703,0.793457,-34.606934
2024-12-31 11:32:09.870959,-0.189819,0.011841,0.994995,-0.732422,-0.976562,-33.020020
2024-12-31 11:32:09.878959,-0.207642,-0.104736,1.007202,-2.014160,-1.220703,-29.113770
2024-12-31 11:32:09.887959,-0.081909,0.006226,1.013672,-4.821777,-1.953125,-29.846191
2024-12-31 11:32:09.895959,-0.158691,0.140503,0.978394,-4.699707,-1.281738,-32.470703
2024-12-31 11:32:09.904959,-0.213501,0.015625,1.071777,-5.249023,5.676270,-30.944824
2024-12-31 11:32:09.912959,-0.136963,0.003174,0.990234,-1.281738,3.417969,-35.522461
2024-12-31 11:32:09.921959,-0.447021,0.021484,0.903442,-5.065918,0.000000,-37.597656
2024-12-31 11:32:09.929959,-0.081543,0.044434,1.022583,-7.751465,-2.258301,-40.100098
2024-12-31 11:32:09.938959,-0.199951,-0.078003,1.057617,0.305176,-3.845215,-43.273926
2024-12-31 11:32:09.946959,-0.359985,-0.145508,0.981812,-3.417969,-1.342773,-41.870117
2024-12-31 11:32:09.955959,-0.299805,-0.097534,0.949341,-4.516602,0.244141,-39.916992
2024-12-31 11:32:09.963959,-0.317871,-0.253662,0.960205,-3.723145,-1.770020,-37.902832
2024-12-31 11:32:09.972959,-0.372681,-0.230225,0.938232,-4.943848,-2.014160,-33.264160
2024-12-31 11:32:09.980959,-0.070679,-0.021851,1.090576,-5.493164,0.366211,-23.620605
2024-12-31 11:32:09.989959,-0.259521,0.053467,0.910645,0.183105,0.671387,-29.541016
2024-12-31 11:32:09.997959,0.082886,-0.063477,1.077515,0.976562,1.953125,-39.733887
2024-12-31 11:32:10.005959,-0.144897,0.097778,1.008423,-2.990723,2.502441,-45.898438
2024-12-31 11:32:10.014959,0.055420,0.065308,1.079468,-3.784180,1.342773,-48.339844
2024-12-31 11:32:10.022959,-0.041260,0.207764,1.088379,-10.742188,-1.831055,-47.607422
2024-12-31 11:32:10.031959,0.010742,0.172852,1.095703,-0.854492,-1.281738,-53.833008
2024-12-31 11:32:10.039959,-0.078613,0.001831,1.137085,2.258301,-2.807617,-57.312012
2024-12-31 11:32:10.048959,-0.040283,0.209595,0.996948,-2.258301,-1.953125,-55.725098
2024-12-31 11:32:10.056959,-0.131348,0.278687,0.922852,-2.990723,-3.295898,-59.326172
2024-12-31 11:32:10.065959,-0.084961,0.127686,0.986206,-2.807617,1.464844,-64.331055
2024-12-31 11:32:10.073959,-0.015503,0.120972,1.013916,-4.211426,1.770020,-65.612793
2024-12-31 11:32:10.082959,-0.080688,0.119751,0.982666,-4.333496,-1.770020,-64.758301
2024-12-31 11:32:10.090959,0.057983,0.129150,0.949463,-6.530762,-0.610352,-61.096191
2024-12-31 11:32:10.099959,0.067627,0.042480,1.041504,-8.728027,-1.037598,-64.331055
2024-12-31 11:32:10.107959,0.028687,0.112549,0.894287,-6.530762,-3.234863,-60.485840
2024-12-31 11:32:10.115959,0.075195,-0.015015,0.973511,-3.662109,-0.549316,-59.509277
2024-12-31 11:32:10.124959,0.055786,-0.108521,1.096802,-5.554199,-0.793457,-54.443359
2024-12-31 11:32:10.132959,0.152100,-0.065430,1.020264,-5.187988,0.244141,-50.598145
2024-12-31 11:32:10.141959,0.122803,-0.063965,0.977905,-4.516602,0.854492,-47.912598
2024-12-31 11:32:10.149959,0.161865,-0.029053,1.000732,0.732422,-1.403809,-51.452637
2024-12-31 11:32:10.158959,0.120239,0.049194,0.982910,0.732422,1.159668,-52.062988
2024-12-31 11:32:10.166959,0.259277,0.020386,1.076538,1.586914,0.671387,-52.612305
2024-12-31 11:32:10.175959,0.187134,0.032715,1.016479,1.647949,3.723145,-54.199219
2024-12-31 11:32:10.183959,0.239014,0.017090,1.025391,-5.371094,1.342773,-64.208984
2024-12-31 11:32:10.192959,0.218628,-0.021851,1.004761,-6.347656,3.051758,-62.988281
2024-12-31 11:32:10.200959,0.261353,-0.011841,0.967163,-1.281738,2.136230,-61.279297
2024-12-31 11:32:10.209959,0.227783,-0.060669,0.985962,-2.868652,1.281738,-63.964844
2024-12-31 11:32:10.217959,0.206421,-0.197754,1.076782,-8.728027,0.671387,-56.762695
2024-12-31 11:32:10.226959,0.146240,-0.239136,1.039795,-0.854492,2.502441,-53.344727
2024-12-31 11:32:10.234959,0.198242,-0.194946,0.991089,0.061035,2.075195,-49.377441
2024-12-31 11:32:10.242959,0.232666,-0.133057,0.955933,-2.624512,0.854492,-45.898438
2024-12-31 11:32:10.251959,0.178223,-0.142090,0.983154,-1.464844,0.183105,-39.489746
2024-12-31 11:32:10.259959,0.138306,-0.096069,1.023315,-3.601074,0.061035,-35.644531
2024-12-31 11:32:10.268959,0.000977,-0.190674,1.029053,-3.479004,2.075195,-30.212402
2024-12-31 11:32:10.276959,0.059326,-0.107422,1.030151,-5.615234,-0.244141,-28.137207
2024-12-31 11:32:10.285959,-0.141602,-0.204468,1.066162,-2.929688,0.427246,-26.550293
2024-12-31 11:32:10.293959,0.164551,-0.147461,0.935059,-4.821777,2.563477,-21.057129
2024-12-31 11:32:10.302959,0.005493,-0.181519,1.011597,-3.356934,1.831055,-17.333984
2024-12-31 11:32:10.310959,0.167847,-0.083496,0.954834,-4.577637,0.183105,-19.165039
2024-12-31 11:32:10.319959,0.099365,-0.123901,0.999756,-3.784180,0.854492,-12.207031
2024-12-31 11:32:10.327959,0.138428,-0.167969,0.931152,-3.967285,1.831055,-7.934570
2024-12-31 11:32:10.336959,0.067383,-0.135864,1.032715,-2.136230,1.586914,-4.455566
2024-12-31 11:32:10.344959,0.106445,-0.176147,0.967041,-4.028320,0.854492,-1.647949
2024-12-31 11:32:10.353959,-0.120117,-0.199097,1.045166,-4.943848,3.356934,0.549316
2024-12-31 11:32:10.361959,0.175659,-0.162354,0.915161,-0.427246,0.732422,4.333496
2024-12-31 11:32:10.369959,-0.101807,-0.197876,1.027954,-3.662109,2.746582,11.535645
2024-12-31 11:32:10.378959,-0.061157,-0.125977,1.002319,-2.441406,1.770020,15.747070
2024-12-31 11:32:10.386959,-0.023193,-0.290771,1.037354,-4.333496,1.464844,18.371582
2024-12-31 11:32:10.395959,0.085449,-0.204834,0.870605,-4.028320,2.624512,25.085449
2024-12-31 11:32:10.403959,0.012573,-0.098755,1.008545,-2.990723,2.319336,28.259277
2024-12-31 11:32:10.412959,-0.094604,-0.073242,1.055176,-4.211426,2.136230,30.273438
2024-12-31 11:32:10.420959,-0.297729,-0.189087,1.063965,-4.821777,1.525879,32.104492
2024-12-31 11:32:10.429959,-0.136597,-0.219238,1.017090,-3.662109,1.342773,33.264160
2024-12-31 11:32:10.437959,-0.117432,-0.134644,1.026855,-2.380371,3.051758,33.447266
2024-12-31 11:32:10.446959,-0.302246,-0.017578,1.026611,-1.953125,5.310059,32.348633
2024-12-31 11:32:10.454959,-0.072754,-0.145508,0.992065,0.549316,2.197266,34.606934
2024-12-31 11:32:10.463959,-0.027710,-0.169434,0.969849,-1.770020,5.615234,33.996582
2024-12-31 11:32:10.471959,-0.179077,-0.097900,1.048706,-4.638672,1.464844,33.447266
2024-12-31 11:32:10.479959,-0.109619,-0.131714,1.065796,-5.371094,2.380371,36.132812
2024-12-31 11:32:10.488959,-0.066040,-0.184937,0.958008,-5.249023,3.173828,39.306641
2024-12-31 11:32:10.496959,-0.250488,-0.062378,1.077271,-4.882812,-0.732422,43.090820
2024-12-31 11:32:10.505959,-0.147827,-0.065430,0.943359,-2.258301,5.676270,41.503906
2024-12-31 11:32:10.513959,-0.277588,-0.136963,1.050049,-1.770020,5.493164,45.166016
2024-12-31 11:32:10.522959,-0.155884,0.094849,1.035400,-5.737305,0.305176,49.438477
2024-12-31 11:32:10.530959,-0.141602,0.111450,1.100830,-1.037598,3.051758,46.569824
2024-12-31 11:32:10.539959,-0.258545,0.020264,1.027100,-5.249023,2.746582,49.316406
2024-12-31 11:32:10.547959,-0.305298,0.049194,1.075684,1.281738,2.807617,46.020508
2024-12-31 11:32:10.556959,-0.335205,-0.036133,0.997314,0.061035,2.746582,43.029785
2024-12-31 11:32:10.564959,-0.126587,-0.124146,0.971680,-5.187988,2.319336,38.146973
2024-12-31 11:32:10.573959,-0.142456,0.058105,1.000244,-9.399414,5.737305,33.020020
2024-12-31 11:32:10.581959,-0.142700,0.135742,1.073853,1.586914,-3.295898,32.104492
2024-12-31 11:32:10.590959,0.063232,0.284302,1.047607,0.061035,1.525879,25.329590
2024-12-31 11:32:10.598959,-0.106323,0.279907,1.019897,-5.798340,1.525879,26.550293
2024-12-31 11:32:10.606959,0.040405,0.224976,1.022583,-3.295898,-1.892090,25.756836
2024-12-31 11:32:10.615959,-0.095825,0.146606,1.017212,-3.723145,-0.122070,19.104004
2024-12-31 11:32:10.623959,0.229980,0.233398,1.092407,-0.854492,3.479004,13.916016
2024-12-31 11:32:10.632959,-0.199219,0.119873,0.995117,2.014160,3.906250,6.896973
2024-12-31 11:32:10.640959,0.031860,0.178467,1.086548,-0.488281,-3.967285,12.084961
2024-12-31 11:32:10.649959,-0.008423,0.141479,0.984497,-5.249023,2.868652,8.728027
2024-12-31 11:32:10.657959,0.156494,0.223633,1.109009,4.150391,0.793457,3.601074
2024-12-31 11:32:10.666959,-0.690796,-0.166748,0.880127,-6.958008,3.845215,4.089355
2024-12-31 11:32:10.674959,-0.174072,0.112427,0.984009,-2.990723,1.586914,4.577637
2024-12-31 11:32:10.683959,0.067993,0.225342,1.024048,-5.432129,0.000000,6.591797
2024-12-31 11:32:10.691959,-0.212769,-0.007202,0.956665,-4.272461,-0.854492,4.089355
2024-12-31 11:32:10.700959,-0.080444,0.006836,0.972534,3.051758,0.610352,1.464844
2024-12-31 11:32:10.708959,-0.237061,0.046875,0.918945,-1.281738,2.380371,1.098633
2024-12-31 11:32:10.717959,-0.049561,0.036255,1.018311,-2.624512,-1.403809,5.249023
2024-12-31 11:32:10.725959,-0.007446,-0.063599,1.013062,-0.183105,0.122070,4.882812
2024-12-31 11:32:10.733959,0.225342,0.025513,1.123657,-2.990723,-0.549316,2.441406
2024-12-31 11:32:10.742959,-0.076416,0.147461,0.946289,-2.685547,1.281738,4.882812
2024-12-31 11:32:10.750959,-0.247803,-0.017212,0.921387,-0.427246,1.037598,2.807617
2024-12-31 11:32:10.759959,0.074219,-0.130859,1.063477,-1.159668,3.540039,2.075195
2024-12-31 11:32:10.767959,0.009644,0.113525,0.992065,0.122070,2.990723,-0.488281
2024-12-31 11:32:10.776959,0.002808,0.040283,1.002686,-2.685547,-1.464844,2.075195
2024-12-31 11:32:10.784959,0.239624,0.156006,1.051270,-6.408691,3.295898,3.479004
2024-12-31 11:32:10.793959,-0.282715,-0.080444,0.892822,-6.103516,0.488281,0.976562
2024-12-31 11:32:10.801959,0.213745,-0.042847,1.090332,0.488281,-0.732422,-2.685547
2024-12-31 11:32:10.810959,-0.292358,0.088623,0.890869,-3.540039,-1.159668,-2.685547
2024-12-31 11:32:10.818959,0.264038,0.072388,1.111572,-5.798340,-0.671387,-1.586914
2024-12-31 11:32:10.827959,-0.140625,0.029663,0.955200,-0.427246,0.549316,-1.770020
2024-12-31 11:32:10.835959,-0.019287,-0.103394,0.996460,-2.746582,0.549316,0.244141
2024-12-31 11:32:10.843959,-0.066772,-0.118164,1.041138,-2.441406,-1.220703,-4.760742
2024-12-31 11:32:10.852959,-0.124756,-0.019165,0.924072,-3.723145,-0.061035,-6.469727
2024-12-31 11:32:10.860959,-0.149048,-0.057983,0.973633,0.122070,0.183105,-8.728027
2024-12-31 11:32:10.869959,0.130005,0.100830,1.036011,-0.488281,-2.319336,-14.465332
2024-12-31 11:32:10.877959,0.060425,0.108276,1.019775,0.732422,0.305176,-18.859863
2024-12-31 11:32:10.886959,0.041748,0.026367,1.012939,-4.455566,0.000000,-19.287109
2024-12-31 11:32:10.894959,-0.113892,-0.030273,0.927002,-2.868652,-1.098633,-19.958496
2024-12-31 11:32:10.903959,0.003174,-0.042236,1.029907,-4.577637,2.136230,-19.775391
2024-12-31 11:32:10.911959,0.035156,-0.031128,0.997314,-4.089355,0.671387,-18.676758
2024-12-31 11:32:10.920959,0.079224,-0.163818,1.078735,-1.831055,0.915527,-19.714355
2024-12-31 11:32:10.928959,0.049438,-0.155396,1.000977,-3.723145,0.793457,-15.869141
2024-12-31 11:32:10.937959,0.175171,-0.037476,1.069214,-5.371094,0.183105,-12.451172
2024-12-31 11:32:10.945959,0.006836,-0.104370,0.968262,-0.305176,2.868652,-13.000488
2024-12-31 11:32:10.954959,0.082275,-0.056885,1.006226,-4.028320,0.122070,-10.253906
2024-12-31 11:32:10.962959,0.022583,-0.192871,0.995972,-3.540039,0.610352,-8.972168
2024-12-31 11:32:10.970959,0.054199,-0.197998,1.019043,-5.676270,0.793457,-3.723145
2024-12-31 11:32:10.979959,-0.036011,-0.303101,0.917480,-3.662109,3.784180,2.502441
2024-12-31 11:32:10.987959,0.023682,-0.142578,0.966431,-6.774902,-4.638672,7.019043
2024-12-31 11:32:10.996959,-0.023193,-0.199585,0.936157,-2.502441,1.770020,4.760742
2024-12-31 11:32:11.004959,0.108032,-0.174316,1.011230,0.305176,3.051758,2.075195
2024-12-31 11:32:11.013959,0.087646,-0.131470,1.016235,-4.211426,-0.488281,7.385254
2024-12-31 11:32:11.021959,0.127197,-0.074219,1.103271,-1.159668,3.051758,7.141113
2024-12-31 11:32:11.030959,0.230713,-0.063843,1.072998,-4.089355,0.793457,13.549805
2024-12-31 11:32:11.038959,0.054565,-0.124146,0.960571,-4.943848,0.427246,13.000488
2024-12-31 11:32:11.047959,0.152222,-0.094238,0.972290,1.281738,-1.281738,15.808105
2024-12-31 11:32:11.055959,0.071899,-0.042969,1.060181,1.464844,2.441406,15.014648
2024-12-31 11:32:11.064959,0.096313,-0.144287,0.950073,-1.892090,0.732422,18.310547
2024-12-31 11:32:11.072959,0.120361,-0.094238,0.996582,-1.037598,2.258301,19.775391
2024-12-31 11:32:11.080959,0.036621,-0.076050,1.074707,-1.525879,2.807617,25.573730
2024-12-31 11:32:11.089959,-0.141846,-0.079346,0.972778,-4.028320,2.807617,26.611328
2024-12-31 11:32:11.097959,0.066406,-0.039917,1.052979,-3.845215,0.366211,25.573730
2024-12-31 11:32:11.106959,0.036743,-0.082764,0.947510,-2.990723,2.990723,23.925781
2024-12-31 11:32:11.114959,-0.077148,-0.065186,0.981689,0.671387,3.540039,20.690918
2024-12-31 11:32:11.123959,-0.012207,-0.044922,1.040161,-0.122070,2.014160,24.597168
2024-12-31 11:32:11.131959,-0.152588,-0.087280,1.010620,-1.281738,0.915527,31.677246
2024-12-31 11:32:11.140959,-0.008789,-0.095459,1.037964,-3.112793,1.037598,23.864746
2024-12-31 11:32:11.148959,0.025024,-0.095703,1.012817,-2.075195,1.831055,30.578613
2024-12-31 11:32:11.157959,-0.019165,-0.010254,0.990234,-4.699707,2.807617,29.357910
2024-12-31 11:32:11.165959,0.026611,-0.009766,1.028931,-5.065918,0.427246,26.733398
2024-12-31 11:32:11.174959,0.111084,-0.106201,1.027344,1.464844,1.770020,29.052734
2024-12-31 11:32:11.182959,0.079224,-0.168091,0.899902,0.732422,1.403809,27.099609
2024-12-31 11:32:11.191959,-0.092285,-0.071899,1.025635,-0.122070,4.455566,22.521973
2024-12-31 11:32:11.199959,0.139648,-0.085693,0.943726,-2.563477,1.525879,28.198242
2024-12-31 11:32:11.207959,0.024902,0.039429,1.083374,-6.164551,2.807617,28.381348
2024-12-31 11:32:11.216959,0.131104,-0.052368,1.002930,-3.417969,0.366211,44.433594
2024-12-31 11:32:11.224959,0.050415,0.045166,0.911865,-3.356934,0.976562,47.485352
2024-12-31 11:32:11.233959,-0.144531,0.061035,1.168213,-1.708984,0.915527,44.494629
2024-12-31 11:32:11.241959,0.052246,0.002686,0.933105,-1.831055,1.464844,37.658691
2024-12-31 11:32:11.250959,-0.043457,-0.039429,1.071411,-1.953125,3.784180,40.466309
2024-12-31 11:32:11.258959,-0.063477,0.081543,1.035156,-7.751465,2.624512,48.034668
2024-12-31 11:32:11.267959,-0.002197,-0.118896,0.911621,-6.042480,2.868652,46.997070
2024-12-31 11:32:11.275959,-0.245728,0.123291,1.106812,-3.479004,7.385254,38.391113
2024-12-31 11:32:11.284959,-0.043579,0.097046,1.044556,-1.464844,3.112793,37.048340
2024-12-31 11:32:11.292959,0.000244,0.077881,1.013184,-8.483887,1.098633,41.259766
2024-12-31 11:32:11.301959,-0.178467,-0.069824,1.004150,-2.014160,-1.586914,40.100098
2024-12-31 11:32:11.309959,-0.144287,-0.097412,0.951416,0.244141,2.624512,34.973145
2024-12-31 11:32:11.318959,-0.004883,0.099731,1.062866,-8.972168,1.037598,39.062500
2024-12-31 11:32:11.326959,-0.106079,-0.005127,1.005981,-5.920410,0.488281,38.330078
2024-12-31 11:32:11.334959,-0.439087,0.088257,0.951172,1.525879,1.159668,34.118652
2024-12-31 11:32:11.343959,-0.154541,-0.043335,0.980469,-0.793457,2.136230,30.822754
2024-12-31 11:32:11.351959,-0.086426,0.047852,0.969238,-6.164551,6.774902,31.799316
2024-12-31 11:32:11.360959,-0.055542,0.129761,1.042969,-5.126953,4.211426,37.536621
2024-12-31 11:32:11.368959,-0.153442,0.050293,1.015381,-4.272461,4.577637,39.123535
2024-12-31 11:32:11.377959,-0.189087,-0.007324,0.990845,-6.713867,-0.976562,38.208008
2024-12-31 11:32:11.385959,-0.045166,0.174561,1.083008,-0.366211,-3.173828,29.418945
2024-12-31 11:32:11.394959,-0.251831,0.020020,0.958618,-5.615234,-1.403809,29.663086
2024-12-31 11:32:11.402959,0.010742,0.213623,1.104004,0.183105,-0.488281,24.230957
2024-12-31 11:32:11.411959,-0.258789,0.050415,0.987671,-0.122070,2.624512,21.484375
2024-12-31 11:32:11.419959,-0.096802,0.172241,0.996582,-2.502441,4.943848,20.446777
2024-12-31 11:32:11.428959,-0.211426,0.139648,1.010742,-7.385254,3.173828,20.263672
2024-12-31 11:32:11.436959,-0.054932,0.025513,1.023804,-0.610352,1.831055,16.662598
2024-12-31 11:32:11.445959,-0.237671,0.000488,0.961060,-5.432129,3.784180,16.479492
2024-12-31 11:32:11.453959,-0.032715,0.023926,1.010254,-6.225586,1.831055,18.371582
2024-12-31 11:32:11.461959,-0.115601,0.080566,0.975830,-4.272461,1.525879,14.831543
2024-12-31 11:32:11.470959,-0.057617,-0.032471,1.004395,-1.953125,4.028320,13.122559
2024-12-31 11:32:11.478959,0.282349,0.055542,1.093140,1.403809,0.427246,12.634277
2024-12-31 11:32:11.487959,-0.040283,0.147583,1.042114,-2.502441,1.892090,10.864258
2024-12-31 11:32:11.495959,-0.255249,0.051514,0.981934,-2.258301,0.183105,10.253906
2024-12-31 11:32:11.504959,-0.121216,-0.013550,0.996704,-3.051758,2.014160,5.859375
2024-12-31 11:32:11.512959,-0.098145,-0.010864,0.970825,-4.028320,2.014160,7.385254
2024-12-31 11:32:11.521959,-0.168335,0.002197,0.980225,-1.708984,-1.220703,6.103516
2024-12-31 11:32:11.529959,-0.171631,0.055664,0.957397,-3.417969,0.061035,7.324219
2024-12-31 11:32:11.538959,0.098022,-0.033447,1.027588,-0.610352,-0.366211,5.615234
2024-12-31 11:32:11.546959,-0.353149,-0.000610,0.945923,-3.845215,2.197266,7.202148
2024-12-31 11:32:11.555959,-0.193359,-0.028076,1.016479,-4.943848,-2.075195,4.821777
2024-12-31 11:32:11.563959,-0.120850,0.116943,1.022583,-5.798340,-1.647949,2.197266
2024-12-31 11:32:11.571959,0.367676,-0.081787,1.042480,-1.831055,-2.746582,-0.854492
2024-12-31 11:32:11.580959,-0.100342,0.022583,0.990112,-5.432129,-2.746582,-8.666992
2024-12-31 11:32:11.588959,0.189697,0.063477,1.040161,2.807617,1.281738,-15.869141
2024-12-31 11:32:11.597959,0.095825,0.019897,1.046387,-2.868652,0.732422,-12.817383
2024-12-31 11:32:11.605959,-0.013306,0.003784,0.997314,-1.281738,-0.061035,-11.596680
2024-12-31 11:32:11.614959,-0.009033,0.002686,1.001587,-2.868652,-0.793457,-13.000488
2024-12-31 11:32:11.622959,-0.068237,0.061890,1.049438,-1.892090,0.244141,-18.249512
2024-12-31 11:32:11.631959,0.067871,0.019043,1.015991,-3.540039,-3.051758,-18.554688
2024-12-31 11:32:11.639959,0.028809,0.028442,1.003662,-4.638672,-0.915527,-18.676758
2024-12-31 11:32:11.648959,-0.070923,0.086060,0.938110,-2.990723,0.854492,-20.385742
2024-12-31 11:32:11.656959,0.106934,0.024536,1.053467,-3.356934,0.244141,-23.620605
2024-12-31 11:32:11.665959,0.167358,0.128418,1.057495,-5.371094,0.610352,-22.949219
2024-12-31 11:32:11.673959,-0.137939,-0.011108,0.925781,-4.333496,0.854492,-25.329590
2024-12-31 11:32:11.682959,0.131592,0.000366,1.015625,-2.319336,0.488281,-27.709961
2024-12-31 11:32:11.690959,0.227295,-0.059937,1.060303,-3.601074,-1.525879,-29.052734
2024-12-31 11:32:11.698959,-0.008423,-0.180176,1.032593,-3.234863,0.122070,-23.559570
2024-12-31 11:32:11.707959,0.252441,-0.032593,1.059082,-3.356934,-0.793457,-21.057129
2024-12-31 11:32:11.715959,0.074341,-0.057739,0.975830,-3.051758,2.685547,-19.714355
2024-12-31 11:32:11.724959,-0.017456,-0.062378,1.003174,-4.455566,2.929688,-18.920898
2024-12-31 11:32:11.732959,0.106689,-0.029053,1.044434,-2.563477,-0.976562,-19.470215
2024-12-31 11:32:11.741959,-0.231934,-0.092041,0.972900,-4.455566,-0.183105,-14.038086
2024-12-31 11:32:11.749959,0.188721,-0.031738,0.988403,-2.502441,0.183105,-17.211914
2024-12-31 11:32:11.758959,-0.086670,-0.136841,0.912842,-2.685547,-1.708984,-16.174316
2024-12-31 11:32:11.766959,-0.004395,-0.105591,0.999023,-4.211426,2.685547,-10.192871
2024-12-31 11:32:11.775959,0.379028,-0.025391,1.048340,-5.981445,3.540039,-9.460449
2024-12-31 11:32:11.783959,0.109497,-0.081421,0.977295,-2.014160,-0.732422,-8.056641
2024-12-31 11:32:11.792959,0.353394,0.016357,1.028198,-2.441406,-0.061035,-2.685547
2024-12-31 11:32:11.800959,0.104736,-0.041016,1.003174,-4.394531,0.976562,-3.234863
2024-12-31 11:32:11.808959,0.154785,-0.077393,0.996704,-2.197266,2.258301,6.164551
2024-12-31 11:32:11.817959,0.208740,-0.015991,1.017700,-1.159668,1.281738,10.681152
2024-12-31 11:32:11.825959,0.197998,-0.098389,0.986084,-0.305176,-0.305176,15.747070
2024-12-31 11:32:11.834959,0.131104,-0.038208,1.017090,-6.103516,-1.586914,17.395020
2024-12-31 11:32:11.842959,0.162964,-0.067505,1.023438,-0.488281,3.112793,24.414062
2024-12-31 11:32:11.851959,0.222778,-0.020386,1.000122,-3.356934,2.136230,28.320312
2024-12-31 11:32:11.859959,0.116577,-0.049805,1.027466,-2.075195,2.807617,24.719238
2024-12-31 11:32:11.868959,0.272949,-0.045044,0.985474,2.319336,0.427246,30.822754
2024-12-31 11:32:11.876959,0.305908,0.044800,0.969727,-3.051758,3.967285,28.320312
2024-12-31 11:32:11.885959,0.027344,-0.019897,0.976562,-0.793457,3.417969,24.963379
2024-12-31 11:32:11.893959,-0.012207,-0.001953,1.071411,-2.136230,1.525879,26.306152
2024-12-31 11:32:11.902959,0.156128,0.084351,0.972046,-1.342773,1.281738,20.935059
2024-12-31 11:32:11.910959,0.112061,-0.002441,1.035889,-1.342773,3.784180,20.507812
2024-12-31 11:32:11.919959,0.094360,0.020020,1.007690,-1.159668,2.441406,14.282227
2024-12-31 11:32:11.927959,0.087280,0.028809,0.986206,-3.479004,3.417969,15.136719
2024-12-31 11:32:11.935959,0.086060,-0.004395,0.986206,-2.014160,2.685547,16.784668
2024-12-31 11:32:11.944959,0.023682,0.036499,1.016968,-4.943848,4.089355,14.038086
2024-12-31 11:32:11.952959,-0.056396,0.012329,1.049805,-3.112793,2.807617,12.145996
2024-12-31 11:32:11.961959,0.196289,-0.006958,0.986816,0.061035,3.845215,12.023926
2024-12-31 11:32:11.969959,-0.079834,-0.010986,1.045532,-3.601074,3.845215,9.521484
2024-12-31 11:32:11.978959,-0.110474,0.034912,1.039062,-2.258301,1.037598,12.939453
2024-12-31 11:32:11.986959,-0.054932,-0.000122,1.068604,-2.502441,1.342773,10.375977
2024-12-31 11:32:11.995959,0.089233,0.139771,1.084961,-3.662109,5.187988,8.605957
2024-12-31 11:32:12.003959,0.012695,0.082031,0.994385,-1.586914,3.051758,5.981445
2024-12-31 11:32:12.012959,-0.031860,0.072754,1.032471,-4.638672,-0.366211,-0.122070
2024-12-31 11:32:12.020959,-0.134766,-0.017212,1.027222,-4.272461,-0.244141,-2.075195
2024-12-31 11:32:12.029959,0.121826,0.173340,0.950928,-3.662109,-0.244141,-6.652832
2024-12-31 11:32:12.037959,-0.225464,-0.034790,1.000610,-3.845215,3.173828,-2.868652
2024-12-31 11:32:12.046959,-0.033081,0.069092,1.074951,-2.685547,0.915527,-8.056641
2024-12-31 11:32:12.054959,0.041992,0.216675,1.146851,-1.464844,1.281738,-14.404297
2024-12-31 11:32:12.062959,-0.286987,-0.045532,0.961670,0.244141,3.417969,-8.972168
2024-12-31 11:32:12.071959,0.102173,-0.009399,0.978760,-3.173828,4.272461,-3.967285
2024-12-31 11:32:12.079959,-0.163940,0.004639,1.018311,-5.310059,3.845215,-11.962891
2024-12-31 11:32:12.088959,0.039185,0.026245,0.940674,-5.798340,-2.380371,-13.183594
2024-12-31 11:32:12.096959,-0.088989,0.129150,1.004272,-4.455566,3.723145,-9.460449
2024-12-31 11:32:12.105959,0.122681,0.228760,1.028320,-6.103516,-1.098633,-16.235352
2024-12-31 11:32:12.113959,-0.159546,0.117798,1.000488,-2.197266,1.647949,-15.014648
2024-12-31 11:32:12.122959,0.050537,-0.002930,1.025391,-0.793457,2.624512,-13.366699
2024-12-31 11:32:12.130959,-0.619995,-0.172241,0.978882,0.122070,0.122070,-18.249512
2024-12-31 11:32:12.139959,-0.142578,0.074951,1.086182,-9.399414,-2.014160,-19.958496
2024-12-31 11:32:12.147959,0.016235,0.148315,1.015015,-3.784180,0.793457,-18.615723
2024-12-31 11:32:12.156959,-0.442871,0.051880,0.999634,-3.540039,-2.990723,-17.822266
2024-12-31 11:32:12.164959,-0.194946,0.041138,1.003174,2.929688,0.549316,-18.188477
2024-12-31 11:32:12.172959,-0.223389,-0.111938,0.988037,2.685547,1.770020,-17.639160
2024-12-31 11:32:12.181959,-0.181274,0.105103,1.041382,-7.019043,1.403809,-20.080566
2024-12-31 11:32:12.189959,-0.067505,0.027100,1.032104,-3.295898,3.234863,-15.686035
2024-12-31 11:32:12.198959,-0.006958,0.170532,1.027954,-7.873535,-2.746582,-25.024414
2024-12-31 11:32:12.206959,-0.352173,0.122681,1.061523,-3.356934,0.427246,-25.085449
2024-12-31 11:32:12.215959,-0.164795,-0.012207,1.018188,-0.427246,3.540039,-28.686523
2024-12-31 11:32:12.223959,-0.098633,0.143921,0.984131,-3.112793,-1.342773,-33.996582
2024-12-31 11:32:12.232959,-0.067993,0.015259,1.034668,-7.995605,3.479004,-32.836914
2024-12-31 11:32:12.240959,-0.186646,0.010010,1.011719,-5.493164,3.540039,-29.296875
2024-12-31 11:32:12.249959,-0.028442,-0.074951,1.003662,-5.920410,0.793457,-26.977539
2024-12-31 11:32:12.257959,-0.098511,0.105225,1.008179,-5.493164,-5.554199,-39.733887
2024-12-31 11:32:12.266959,-0.185303,0.037476,1.008179,-2.868652,-3.479004,-44.006348
2024-12-31 11:32:12.274959,-0.148804,-0.071655,1.013550,-1.098633,1.647949,-46.508789
2024-12-31 11:32:12.283959,-0.099121,0.014282,1.053345,-5.493164,3.540039,-38.879395
2024-12-31 11:32:12.291959,-0.193726,-0.109131,1.027222,-5.554199,1.159668,-39.245605
2024-12-31 11:32:12.299959,0.127563,-0.123413,1.141846,-6.591797,2.990723,-29.724121
2024-12-31 11:32:12.308959,-0.276978,-0.031250,0.940674,-2.319336,-0.732422,-35.705566
2024-12-31 11:32:12.316959,-0.298828,0.058716,0.875977,0.427246,0.305176,-33.752441
2024-12-31 11:32:12.325959,-0.138672,0.055176,0.934448,-2.441406,1.281738,-32.836914
2024-12-31 11:32:12.333959,-0.237671,0.022461,0.931274,-0.610352,-2.563477,-30.761719
2024-12-31 11:32:12.342959,-0.168213,-0.098389,0.983154,0.549316,-6.713867,-36.926270
2024-12-31 11:32:12.350959,0.054321,0.044678,1.085815,-4.028320,-4.150391,-30.822754
2024-12-31 11:32:12.359959,0.040161,0.162109,0.997437,-3.601074,1.220703,-25.207520
2024-12-31 11:32:12.367959,-0.192871,-0.065186,0.959473,-5.065918,2.258301,-31.921387
2024-12-31 11:32:12.376959,0.001465,0.027222,1.087524,-5.310059,0.793457,-36.865234
2024-12-31 11:32:12.384959,0.133911,0.080444,1.122192,2.990723,2.014160,-36.437988
2024-12-31 11:32:12.393959,-0.113037,0.024048,0.991333,-0.793457,2.441406,-27.099609
2024-12-31 11:32:12.401959,0.046875,0.095825,0.991577,-2.075195,3.112793,-25.451660
2024-12-31 11:32:12.410959,0.096558,-0.036987,1.104614,-6.103516,1.159668,-30.456543
2024-12-31 11:32:12.418959,-0.198364,0.214478,0.843018,-0.732422,-0.854492,-37.780762
2024-12-31 11:32:12.426959,0.168579,0.078247,1.075562,-4.516602,-3.784180,-42.541504
2024-12-31 11:32:12.435959,-0.119385,-0.014893,1.016479,-4.272461,-0.854492,-39.978027
2024-12-31 11:32:12.443959,-0.002441,0.158081,0.986572,2.075195,-0.610352,-43.395996
2024-12-31 11:32:12.452959,0.093750,0.086914,1.045654,-3.417969,-0.305176,-39.672852
2024-12-31 11:32:12.460959,-0.052612,0.045166,1.039795,-1.647949,2.075195,-40.710449
2024-12-31 11:32:12.469959,0.154785,0.148438,1.039673,-5.859375,4.760742,-40.100098
2024-12-31 11:32:12.477959,-0.103271,-0.088013,0.924561,-5.371094,-2.014160,-47.363281
2024-12-31 11:32:12.486959,0.222778,-0.042969,1.075317,-6.164551,0.915527,-41.809082
2024-12-31 11:32:12.494959,-0.140381,0.159180,0.861816,-0.671387,1.159668,-41.259766
2024-12-31 11:32:12.503959,0.223511,-0.136108,1.108521,-3.540039,-0.610352,-45.227051
2024-12-31 11:32:12.511959,0.104492,-0.059692,1.132812,-2.258301,0.305176,-49.743652
2024-12-31 11:32:12.520959,0.180298,0.076294,0.942017,-4.272461,-0.061035,-50.659180
2024-12-31 11:32:12.528959,0.139526,-0.040771,1.048828,-3.967285,0.366211,-47.058105
2024-12-31 11:32:12.536959,0.105103,0.032715,0.993286,-6.347656,-0.427246,-50.598145
2024-12-31 11:32:12.545959,0.111572,0.024536,1.074463,-6.530762,-3.356934,-51.513672
2024-12-31 11:32:12.553959,0.161377,-0.042236,1.105347,-2.868652,1.586914,-49.377441
2024-12-31 11:32:12.562959,0.102905,0.033447,0.989624,-1.525879,1.281738,-46.142578
2024-12-31 11:32:12.570959,0.173462,-0.077881,1.069946,-6.469727,0.549316,-44.006348
2024-12-31 11:32:12.579959,0.083252,-0.098755,0.999512,-3.967285,-0.488281,-46.020508
2024-12-31 11:32:12.587959,0.113159,-0.049561,1.056152,-4.272461,3.051758,-40.283203
2024-12-31 11:32:12.596959,0.136475,-0.045288,1.025513,-3.845215,1.342773,-39.794922
2024-12-31 11:32:12.604959,0.090210,-0.072998,1.034058,-6.958008,0.488281,-38.940430
2024-12-31 11:32:12.613959,-0.000977,-0.150391,1.029785,-2.990723,0.976562,-38.146973
2024-12-31 11:32:12.621959,0.020508,-0.173584,1.067627,-0.488281,-0.122070,-28.198242
2024-12-31 11:32:12.630959,0.100708,-0.005005,1.001709,-0.732422,0.610352,-21.118164
2024-12-31 11:32:12.638959,0.090942,-0.041992,0.981201,-0.854492,-0.305176,-18.859863
2024-12-31 11:32:12.647959,0.118042,-0.059082,1.000000,-6.103516,1.953125,-15.197754
2024-12-31 11:32:12.655959,0.216187,0.021729,0.952393,-4.394531,1.403809,-16.479492
2024-12-31 11:32:12.663959,0.037231,-0.086670,0.993164,-5.249023,1.037598,-18.798828
2024-12-31 11:32:12.672959,0.026001,-0.144775,1.056396,-3.417969,0.915527,-20.507812
2024-12-31 11:32:12.680959,0.020142,-0.195068,1.071655,-3.173828,2.624512,-24.536133
2024-12-31 11:32:12.689959,0.083862,-0.221802,1.028076,-3.234863,-0.854492,-21.911621
2024-12-31 11:32:12.697959,0.006836,-0.257324,1.019165,-2.441406,-1.281738,-21.301270
2024-12-31 11:32:12.706959,0.044556,-0.224487,1.008911,-2.868652,4.516602,-14.160156
2024-12-31 11:32:12.714959,0.093750,-0.107422,0.972778,-6.774902,0.854492,-11.169434
2024-12-31 11:32:12.723959,0.076660,-0.172607,0.994141,-5.798340,1.159668,-9.643555
2024-12-31 11:32:12.731959,-0.010376,-0.100220,1.027588,-2.075195,1.525879,-11.840820
2024-12-31 11:32:12.740959,0.064575,-0.052002,1.026611,-3.662109,3.356934,-5.920410
2024-12-31 11:32:12.748959,0.116821,-0.228516,1.022827,-5.737305,2.563477,-2.746582
2024-12-31 11:32:12.757959,-0.042847,-0.155151,1.000732,-2.807617,2.807617,0.244141
2024-12-31 11:32:12.765959,0.190552,-0.022095,0.962769,-0.732422,0.549316,5.065918
2024-12-31 11:32:12.774959,-0.181763,-0.149048,1.070679,-3.051758,3.784180,6.958008
2024-12-31 11:32:12.782959,0.088623,-0.161987,0.986816,-2.624512,4.211426,9.338379
2024-12-31 11:32:12.790959,-0.065552,-0.144653,1.027466,-1.708984,1.464844,8.483887
2024-12-31 11:32:12.799959,0.023926,-0.286987,0.966431,-3.540039,3.112793,11.047363
2024-12-31 11:32:12.807959,-0.024414,-0.104492,0.983398,-4.455566,2.380371,10.314941
2024-12-31 11:32:12.816959,-0.094360,-0.196899,1.050415,-2.807617,0.244141,11.535645
2024-12-31 11:32:12.824959,-0.037964,-0.051636,0.939209,-4.394531,0.122070,17.761230
2024-12-31 11:32:12.833959,-0.182251,-0.212158,1.063965,-2.868652,0.488281,22.399902
2024-12-31 11:32:12.841959,-0.098511,-0.052734,1.008789,-1.525879,0.854492,22.644043
2024-12-31 11:32:12.850959,0.050049,-0.018677,0.996582,-5.432129,2.319336,22.521973
2024-12-31 11:32:12.858959,-0.007812,-0.054688,0.973267,-5.371094,-0.244141,22.644043
2024-12-31 11:32:12.867959,-0.199463,-0.081177,1.088745,-4.516602,0.854492,24.414062
2024-12-31 11:32:12.875959,-0.082764,-0.098633,1.002075,-1.159668,1.525879,25.024414
2024-12-31 11:32:12.884959,-0.088867,-0.163208,0.974243,-3.845215,0.488281,23.986816
2024-12-31 11:32:12.892959,-0.183838,-0.027100,1.064575,-2.563477,1.892090,24.536133
2024-12-31 11:32:12.900959,-0.139160,-0.109131,0.987915,-3.662109,0.671387,23.864746
2024-12-31 11:32:12.909959,0.166626,-0.100952,0.907959,-0.366211,0.610352,26.611328
2024-12-31 11:32:12.917959,-0.102417,-0.021362,0.976685,-3.112793,1.098633,28.137207
2024-12-31 11:32:12.926959,-0.181152,0.011108,1.060303,-2.868652,0.671387,22.460938
2024-12-31 11:32:12.934959,-0.239502,0.050903,1.038086,-7.568359,2.502441,23.315430
2024-12-31 11:32:12.943959,-0.297974,-0.091187,1.042480,1.220703,1.647949,30.090332
2024-12-31 11:32:12.951959,-0.072632,-0.020874,1.010010,-2.868652,1.037598,24.902344
2024-12-31 11:32:12.960959,-0.093262,-0.127075,0.989258,-3.173828,1.464844,24.291992
2024-12-31 11:32:12.968959,-0.192871,0.151978,1.073975,-1.525879,1.647949,27.160645
2024-12-31 11:32:12.977959,-0.046875,-0.027954,0.986450,5.187988,2.258301,28.808594
2024-12-31 11:32:12.985959,-0.025269,0.162842,1.122192,-4.577637,1.342773,29.846191
2024-12-31 11:32:12.994959,-0.148560,-0.160645,0.971436,-3.479004,3.112793,24.841309
2024-12-31 11:32:13.002959,-0.123535,-0.052368,0.988159,-7.568359,2.624512,27.221680
2024-12-31 11:32:13.011959,-0.113647,0.004272,1.015747,-5.981445,2.746582,26.916504
2024-12-31 11:32:13.019959,-0.120361,-0.014282,0.988281,-3.845215,-0.610352,27.404785
2024-12-31 11:32:13.027959,-0.082031,-0.013184,0.983154,1.647949,1.220703,24.963379
2024-12-31 11:32:13.036959,-0.114380,-0.026855,0.970459,1.464844,4.638672,23.254395
2024-12-31 11:32:13.044959,-0.040894,0.010498,1.008789,1.281738,2.807617,23.742676
2024-12-31 11:32:13.053959,-0.209106,0.007446,0.987915,-3.784180,2.868652,24.536133
2024-12-31 11:32:13.061959,-0.218750,-0.049561,0.941284,-4.638672,2.075195,23.010254
2024-12-31 11:32:13.070959,-0.116455,-0.026001,0.974854,1.098633,1.892090,16.845703
2024-12-31 11:32:13.078959,-0.190308,0.004639,0.961426,-4.638672,-0.244141,19.836426
2024-12-31 11:32:13.087959,-0.023438,0.083740,1.025024,-2.136230,2.014160,17.028809
2024-12-31 11:32:13.095959,-0.076050,0.019043,0.988037,-2.075195,-0.610352,15.808105
2024-12-31 11:32:13.104959,-0.083374,0.076782,0.983398,-10.864258,4.882812,13.610840
2024-12-31 11:32:13.112959,-0.271606,0.086304,0.953369,-1.647949,0.732422,11.230469
2024-12-31 11:32:13.121959,0.017822,0.066772,0.997437,-4.516602,0.427246,9.216309
2024-12-31 11:32:13.129959,0.022217,0.027222,1.031860,1.892090,2.014160,2.502441
2024-12-31 11:32:13.138959,-0.156494,-0.010010,0.968262,-4.089355,2.807617,6.835938
2024-12-31 11:32:13.146959,-0.038086,-0.002075,0.994507,3.601074,2.014160,5.554199
2024-12-31 11:32:13.154959,-0.062622,0.094727,1.018311,-2.075195,2.136230,7.995605
2024-12-31 11:32:13.163959,-0.066406,0.066895,0.999268,-0.671387,1.647949,6.469727
2024-12-31 11:32:13.171959,-0.186279,0.090454,0.934082,-5.981445,2.441406,5.798340
2024-12-31 11:32:13.180959,-0.041870,0.022339,1.024414,-4.333496,0.610352,5.187988
2024-12-31 11:32:13.188959,-0.154907,-0.007690,0.998291,-8.239746,0.183105,4.638672
2024-12-31 11:32:13.197959,-0.072754,-0.080811,1.013550,-2.319336,0.061035,1.586914
2024-12-31 11:32:13.205959,0.002930,0.005371,1.051758,-5.798340,1.525879,1.098633
2024-12-31 11:32:13.214959,-0.023804,0.060547,1.045898,-3.662109,1.708984,-0.061035
2024-12-31 11:32:13.222959,-0.132324,0.013794,1.013550,-3.051758,-1.220703,0.305176
2024-12-31 11:32:13.231959,0.117065,0.100098,1.073364,1.098633,1.525879,-1.708984
2024-12-31 11:32:13.239959,0.120361,0.131226,1.084229,-4.821777,-0.183105,-2.563477
2024-12-31 11:32:13.248959,-0.008179,-0.065674,1.016846,-2.624512,0.732422,-4.577637
2024-12-31 11:32:13.256959,-0.042603,-0.030273,0.995483,-1.770020,1.892090,-6.835938
2024-12-31 11:32:13.264959,-0.022339,0.012573,1.058594,-1.342773,-0.549316,-12.145996
2024-12-31 11:32:13.273959,-0.162598,-0.001343,0.977905,-5.310059,-1.708984,-14.160156
2024-12-31 11:32:13.281959,-0.086792,-0.024780,0.972168,-2.075195,0.061035,-14.892578
2024-12-31 11:32:13.290959,-0.064453,-0.165771,1.007812,2.014160,2.807617,-16.296387
2024-12-31 11:32:13.298959,0.149902,-0.069946,1.065063,-3.112793,0.671387,-11.596680
2024-12-31 11:32:13.307959,-0.080200,-0.110352,1.010986,-3.356934,-2.502441,-8.911133
2024-12-31 11:32:13.315959,-0.309814,-0.038940,0.934448,-4.516602,1.647949,-8.850098
2024-12-31 11:32:13.324959,-0.001709,0.029541,1.045898,-2.014160,-0.244141,-9.582520
2024-12-31 11:32:13.332959,0.173096,0.061523,1.001587,0.000000,4.272461,-13.793945
2024-12-31 11:32:13.341959,0.156616,-0.093140,1.027710,-4.699707,1.159668,-14.526367
2024-12-31 11:32:13.349959,0.073120,-0.068481,1.084351,-8.056641,2.075195,-12.329102
2024-12-31 11:32:13.358959,0.104126,-0.033203,1.126221,-2.868652,2.014160,-14.709473
2024-12-31 11:32:13.366959,-0.144653,0.036499,0.990112,-4.028320,1.281738,-11.840820
2024-12-31 11:32:13.375959,0.001099,0.044434,0.919678,-5.615234,2.502441,-7.934570
2024-12-31 11:32:13.383959,0.214111,-0.110840,1.074829,-1.342773,-1.770020,-7.385254
2024-12-31 11:32:13.391959,-0.010620,-0.171509,1.005005,-3.479004,-2.624512,-4.699707
2024-12-31 11:32:13.400959,0.227661,0.046387,1.059814,-1.159668,0.488281,-1.892090
2024-12-31 11:32:13.408959,0.104736,-0.057495,1.014404,-3.234863,0.488281,-2.441406
2024-12-31 11:32:13.417959,0.123169,-0.059082,1.033936,-1.037598,1.159668,-6.958008
2024-12-31 11:32:13.425959,-0.043945,-0.008545,0.963867,-2.868652,-0.305176,-8.728027
2024-12-31 11:32:13.434959,-0.070312,-0.127686,0.995361,-4.150391,0.183105,-4.821777
2024-12-31 11:32:13.442959,0.118652,-0.149414,0.985596,-2.441406,0.610352,4.150391
2024-12-31 11:32:13.451959,0.186890,-0.074707,1.050049,-2.075195,0.671387,9.277344
2024-12-31 11:32:13.459959,0.191650,-0.049805,0.985107,-3.417969,2.014160,10.192871
2024-12-31 11:32:13.468959,0.050049,-0.099731,0.978516,-4.028320,0.244141,13.366699
2024-12-31 11:32:13.476959,0.211914,-0.044067,1.044434,0.671387,-3.601074,15.563965
2024-12-31 11:32:13.485959,0.136597,-0.000854,1.044189,-2.197266,1.037598,11.657715
2024-12-31 11:32:13.493959,0.149048,-0.153564,0.992554,-0.732422,1.586914,14.160156
2024-12-31 11:32:13.501959,0.088989,-0.040039,1.046753,-2.807617,4.882812,17.150879
2024-12-31 11:32:13.510959,0.105469,-0.227661,0.935059,-0.305176,3.295898,17.395020
2024-12-31 11:32:13.518959,0.152466,-0.078247,1.017334,-5.554199,5.065918,21.850586
2024-12-31 11:32:13.527959,0.293579,0.052612,1.044922,-4.150391,1.770020,24.963379
2024-12-31 11:32:13.535959,0.186035,-0.042847,1.006836,-5.310059,-1.525879,25.329590
2024-12-31 11:32:13.544959,0.157715,-0.087280,0.980713,-0.915527,1.220703,27.465820
2024-12-31 11:32:13.552959,0.066162,-0.059448,1.053101,-6.469727,-0.244141,32.348633
2024-12-31 11:32:13.561959,-0.089722,-0.023438,1.043091,0.061035,1.770020,34.301758
2024-12-31 11:32:13.569959,0.266113,-0.178955,0.911133,-0.976562,0.610352,34.790039
2024-12-31 11:32:13.578959,0.192993,-0.086426,1.008545,-2.929688,7.080078,28.137207
2024-12-31 11:32:13.586959,0.158447,0.007324,1.059326,-2.380371,2.990723,32.043457
2024-12-31 11:32:13.595959,0.148804,0.012573,1.009521,-7.080078,2.990723,31.066895
2024-12-31 11:32:13.603959,0.113281,0.062256,1.082031,-4.394531,2.014160,31.799316
2024-12-31 11:32:13.612959,0.179565,0.073608,1.037476,-0.793457,2.380371,31.127930
2024-12-31 11:32:13.620959,0.139404,0.101929,0.994141,-1.464844,1.464844,49.133301
2024-12-31 11:32:13.628959,-0.017700,-0.020996,0.989746,-1.647949,0.000000,47.241211
2024-12-31 11:32:13.637959,0.146240,-0.030762,0.999390,-6.408691,1.342773,38.635254
2024-12-31 11:32:13.645959,0.107422,-0.087280,0.966309,-6.713867,3.540039,36.987305
2024-12-31 11:32:13.654959,-0.137329,0.010010,1.009399,-4.150391,4.394531,37.048340
2024-12-31 11:32:13.662959,-0.132080,0.025635,1.030029,-3.417969,4.821777,43.334961
2024-12-31 11:32:13.671959,-0.069580,0.060425,1.135986,-0.549316,0.427246,51.025391
2024-12-31 11:32:13.679959,-0.136475,-0.028687,0.994873,-3.112793,-0.549316,52.917480
2024-12-31 11:32:13.688959,0.043091,0.013184,1.010620,-2.746582,0.061035,44.799805
2024-12-31 11:32:13.696959,0.117432,0.071045,1.053467,-0.610352,3.417969,39.367676
2024-12-31 11:32:13.705959,-0.041870,0.108643,1.071045,0.793457,1.098633,36.071777
2024-12-31 11:32:13.713959,-0.001343,0.077148,1.063110,-0.854492,0.244141,40.161133
2024-12-31 11:32:13.722959,0.088623,0.036499,0.964355,-3.540039,3.112793,38.391113
2024-12-31 11:32:13.730959,0.061890,-0.005981,1.020386,-9.521484,4.943848,37.658691
2024-12-31 11:32:13.739959,0.031128,-0.019287,1.017334,-2.685547,3.479004,38.635254
2024-12-31 11:32:13.747959,0.073242,0.008545,0.996460,0.854492,0.610352,40.588379
2024-12-31 11:32:13.755959,0.155884,0.080566,1.032959,-2.258301,2.624512,41.320801
2024-12-31 11:32:13.764959,0.079102,0.077026,1.005005,-0.366211,1.831055,40.893555
2024-12-31 11:32:13.772959,0.103271,-0.036255,0.994141,-2.563477,2.502441,44.372559
2024-12-31 11:32:13.781959,0.104980,-0.012451,0.992554,0.793457,-1.525879,36.254883
2024-12-31 11:32:13.789959,0.051758,0.142822,1.007935,-7.507324,1.281738,37.170410
2024-12-31 11:32:13.798959,-0.029297,0.156006,1.002686,-0.549316,1.464844,38.330078
2024-12-31 11:32:13.806959,-0.021851,0.120117,0.993164,-3.662109,3.784180,31.677246
2024-12-31 11:32:13.815959,0.147339,0.159912,1.011597,-1.403809,2.868652,36.437988
2024-12-31 11:32:13.823959,0.131958,0.097412,0.992310,3.173828,4.150391,35.705566
2024-12-31 11:32:13.832959,0.120850,0.154663,1.024780,-0.427246,2.136230,30.578613
2024-12-31 11:32:13.840959,-0.019897,0.196777,1.000244,-3.295898,1.220703,28.747559
2024-12-31 11:32:13.849959,0.277466,0.145508,1.032349,0.488281,5.615234,26.367188
2024-12-31 11:32:13.857959,0.068726,0.172241,1.017334,-5.126953,0.549316,17.944336
2024-12-31 11:32:13.865959,-0.122070,0.232910,1.017700,-2.014160,3.784180,12.023926
2024-12-31 11:32:13.874959,-0.104370,0.186890,1.040283,-1.708984,4.089355,4.394531
2024-12-31 11:32:13.882959,0.024048,0.151733,1.059204,-2.868652,2.319336,-4.699707
2024-12-31 11:32:13.891959,-0.072266,0.043945,1.005615,-2.258301,1.892090,-9.338379
2024-12-31 11:32:13.899959,0.176758,0.151367,0.963379,-0.915527,2.197266,-11.962891
2024-12-31 11:32:13.908959,0.029663,0.153564,0.980713,-2.685547,0.915527,-18.127441
2024-12-31 11:32:13.916959,0.125244,0.164795,0.995850,1.281738,1.464844,-18.981934
2024-12-31 11:32:13.925959,-0.876587,-0.047363,0.984619,-1.586914,-0.732422,-26.062012
2024-12-31 11:32:13.933959,0.442017,0.518066,1.071167,-5.920410,-7.568359,-40.710449
2024-12-31 11:32:13.942959,-0.361450,0.111450,1.035278,-3.112793,7.568359,-27.587891
2024-12-31 11:32:13.950959,-0.230469,0.204468,1.062622,-6.225586,0.610352,-32.592773
2024-12-31 11:32:13.959959,-0.011841,0.180786,0.997437,-7.568359,0.427246,-31.860352
2024-12-31 11:32:13.967959,-0.135132,0.116211,1.039795,-3.662109,1.159668,-36.682129
2024-12-31 11:32:13.976959,0.021606,-0.102539,1.076050,0.732422,-1.220703,-44.738770
2024-12-31 11:32:13.984959,-0.303955,-0.153564,0.884155,0.427246,-1.159668,-54.809570
2024-12-31 11:32:13.992959,-0.313477,0.015015,0.881470,-0.305176,-5.126953,-60.668945
2024-12-31 11:32:14.001959,0.037476,0.253784,1.018433,-7.385254,4.821777,-46.569824
2024-12-31 11:32:14.009959,0.146484,-0.018555,1.041138,-6.835938,2.746582,-47.607422
2024-12-31 11:32:14.018959,-0.211426,0.109863,0.981323,-7.019043,-0.427246,-51.330566
2024-12-31 11:32:14.026959,-0.130127,-0.043579,0.965332,-3.173828,-0.061035,-48.706055
2024-12-31 11:32:14.035959,-0.166748,-0.186279,1.101196,-1.647949,-2.136230,-47.058105
2024-12-31 11:32:14.043959,-0.238037,-0.058228,0.935547,3.173828,-4.272461,-47.424316
2024-12-31 11:32:14.052959,0.020508,-0.031128,0.981079,-10.864258,1.403809,-46.386719
2024-12-31 11:32:14.060959,-0.067261,0.086304,0.956177,-6.591797,-0.244141,-38.513184
2024-12-31 11:32:14.069959,-0.114746,0.026855,0.998169,-0.671387,0.854492,-35.644531
2024-12-31 11:32:14.077959,-0.098389,-0.192383,1.098389,-2.929688,-0.488281,-44.067383
2024-12-31 11:32:14.086959,-0.344727,-0.051025,0.993286,-4.638672,0.915527,-45.959473
2024-12-31 11:32:14.094959,-0.024658,-0.006104,1.002808,-4.150391,3.295898,-39.611816
2024-12-31 11:32:14.102959,-0.131958,-0.061890,1.055420,-10.375977,-0.915527,-42.663574
2024-12-31 11:32:14.111959,-0.193726,-0.078125,0.986084,-3.417969,-2.868652,-43.518066
2024-12-31 11:32:14.119959,-0.236206,-0.099854,1.019287,-2.868652,-5.615234,-43.823242
2024-12-31 11:32:14.128959,-0.135864,0.002075,1.010010,-5.615234,-0.854492,-36.193848
2024-12-31 11:32:14.136959,-0.262451,0.015015,0.972778,1.464844,4.455566,-34.118652
2024-12-31 11:32:14.145959,-0.128174,-0.091797,1.015503,-4.821777,1.831055,-32.348633
2024-12-31 11:32:14.153959,0.349609,-0.269531,1.124878,-5.065918,0.366211,-34.301758
2024-12-31 11:32:14.162959,-0.059204,-0.064697,1.015259,-10.437012,1.037598,-29.418945
2024-12-31 11:32:14.170959,-0.090210,-0.059204,1.009766,-2.014160,4.394531,-30.517578
2024-12-31 11:32:14.179959,-0.075684,-0.094604,1.056641,-2.746582,1.342773,-30.456543
2024-12-31 11:32:14.187959,-0.005249,-0.055786,1.062256,-0.183105,0.610352,-26.794434
2024-12-31 11:32:14.196959,-0.016968,0.161499,0.993896,-0.732422,1.220703,-35.644531
2024-12-31 11:32:14.204959,-0.261719,0.120605,0.943481,0.549316,-6.164551,-38.024902
2024-12-31 11:32:14.213959,-0.051392,0.025757,1.005249,-0.732422,-5.187988,-29.663086
2024-12-31 11:32:14.221959,-0.081787,0.026611,1.052368,-3.417969,-3.051758,-26.306152
2024-12-31 11:32:14.229959,-0.016235,-0.044922,1.032593,-3.967285,1.586914,-22.644043
2024-12-31 11:32:14.238959,-0.054077,-0.030884,1.074585,-5.493164,1.037598,-29.785156
2024-12-31 11:32:14.246959,0.145874,-0.009399,1.115967,-3.295898,3.479004,-41.503906
2024-12-31 11:32:14.255959,-0.231323,0.057129,0.927612,2.563477,3.417969,-42.541504
2024-12-31 11:32:14.263959,-0.078369,0.109009,0.976685,-0.244141,0.000000,-42.480469
2024-12-31 11:32:14.272959,0.173584,0.110229,1.046387,-1.525879,1.098633,-41.198730
2024-12-31 11:32:14.280959,-0.016602,-0.028076,0.994507,-5.676270,2.624512,-39.062500
2024-12-31 11:32:14.289959,0.020996,0.046631,0.984375,-8.544922,0.366211,-40.466309
2024-12-31 11:32:14.297959,-0.067993,-0.080933,1.026123,0.305176,-1.464844,-49.133301
2024-12-31 11:32:14.306959,-0.052246,-0.081055,0.968750,-0.610352,-3.295898,-46.813965
2024-12-31 11:32:14.314959,0.067627,-0.046509,1.054932,-2.746582,0.976562,-38.879395
2024-12-31 11:32:14.323959,0.135010,0.049561,1.056519,-1.586914,0.549316,-36.071777
2024-12-31 11:32:14.331959,0.119141,0.053345,1.002930,-1.770020,1.098633,-39.001465
2024-12-31 11:32:14.340959,0.047485,0.101074,0.935059,-4.394531,0.000000,-40.771484
2024-12-31 11:32:14.348959,-0.045776,-0.022949,1.000488,-2.014160,0.427246,-36.865234
2024-12-31 11:32:14.356959,0.298584,-0.107666,1.126099,-7.568359,0.244141,-36.315918
2024-12-31 11:32:14.365959,-0.035522,-0.027832,0.940308,-2.502441,3.173828,-32.531738
2024-12-31 11:32:14.373959,0.153320,-0.078003,1.038452,-7.629395,-2.624512,-35.522461
2024-12-31 11:32:14.382959,0.054199,-0.124512,1.012573,-2.502441,-0.366211,-32.531738
2024-12-31 11:32:14.390959,0.105591,-0.039673,0.951416,-0.671387,2.380371,-28.930664
2024-12-31 11:32:14.399959,0.078857,-0.185181,1.014526,-5.554199,2.624512,-32.714844
2024-12-31 11:32:14.407959,0.102173,-0.108398,1.015625,-3.479004,-1.525879,-32.775879
2024-12-31 11:32:14.416959,0.095581,0.001465,0.937500,-3.295898,0.732422,-32.653809
2024-12-31 11:32:14.424959,0.152710,0.056396,0.948730,-0.976562,1.037598,-32.287598
2024-12-31 11:32:14.433959,0.073730,-0.142090,1.066528,-1.586914,-2.685547,-30.761719
2024-12-31 11:32:14.441959,0.113770,-0.017578,0.977783,-0.610352,0.732422,-24.719238
2024-12-31 11:32:14.450959,0.158081,-0.040039,1.002563,-5.432129,1.525879,-23.010254
2024-12-31 11:32:14.458959,0.114258,-0.206055,1.040527,0.244141,2.380371,-18.981934
2024-12-31 11:32:14.467959,0.125244,-0.070923,0.984253,-5.187988,0.427246,-17.272949
2024-12-31 11:32:14.475959,0.197632,-0.022095,0.949585,-2.441406,-1.098633,-18.737793
2024-12-31 11:32:14.483959,0.113770,-0.113892,0.998047,-1.403809,0.976562,-17.639160
2024-12-31 11:32:14.492959,0.106079,-0.211182,1.023560,-2.807617,2.258301,-12.084961
2024-12-31 11:32:14.500959,0.209717,-0.031738,0.981079,-5.676270,1.159668,-9.582520
2024-12-31 11:32:14.509959,0.136597,-0.275024,1.007690,-3.173828,0.976562,-12.451172
2024-12-31 11:32:14.517959,0.063843,-0.193481,1.025879,-5.981445,0.793457,-8.361816
2024-12-31 11:32:14.526959,0.089111,-0.091187,1.000610,-2.441406,2.624512,-5.615234
2024-12-31 11:32:14.534959,0.059570,-0.111450,1.024536,-5.493164,1.892090,-1.159668
2024-12-31 11:32:14.543959,-0.027100,-0.149902,1.036255,-3.417969,0.610352,-0.122070
2024-12-31 11:32:14.551959,0.114624,-0.055420,0.971191,-2.929688,0.610352,0.305176
2024-12-31 11:32:14.560959,0.054565,-0.066650,1.049561,-4.211426,1.037598,4.699707
2024-12-31 11:32:14.568959,0.008545,-0.159790,1.002686,-4.089355,2.136230,9.277344
2024-12-31 11:32:14.577959,0.092529,-0.074585,1.008545,-3.540039,2.014160,15.197754
2024-12-31 11:32:14.585959,0.194458,-0.074463,1.015137,-3.601074,1.586914,16.845703
2024-12-31 11:32:14.593959,0.057007,-0.043335,1.054688,-3.295898,1.464844,18.798828
2024-12-31 11:32:14.602959,0.071167,-0.013062,1.022583,-2.807617,2.380371,18.371582
2024-12-31 11:32:14.610959,-0.002930,-0.088501,0.999390,-3.051758,2.258301,16.479492
2024-12-31 11:32:14.619959,0.101685,-0.067261,0.940552,-3.234863,3.479004,16.235352
2024-12-31 11:32:14.627959,-0.015625,-0.069824,1.002686,-3.112793,3.173828,16.601562
2024-12-31 11:32:14.636959,0.044067,-0.058228,0.919678,-3.845215,2.380371,12.878418
2024-12-31 11:32:14.644959,0.187866,-0.012939,0.941406,-3.784180,2.319336,14.770508
2024-12-31 11:32:14.653959,0.118774,0.040771,0.953247,-2.319336,2.197266,14.709473
2024-12-31 11:32:14.661959,-0.019287,0.114624,1.001343,-2.807617,-0.610352,13.305664
2024-12-31 11:32:14.670959,-0.077515,-0.023926,1.057861,-1.220703,0.671387,10.192871
2024-12-31 11:32:14.678959,-0.005005,0.017578,0.998169,0.183105,1.586914,11.108398
2024-12-31 11:32:14.687959,0.022095,-0.027222,1.039307,-3.234863,0.793457,8.239746
2024-12-31 11:32:14.695959,0.108276,0.036377,0.993408,-1.525879,0.793457,5.920410
2024-12-31 11:32:14.704959,-0.068115,-0.036499,0.996094,-1.159668,0.915527,3.662109
2024-12-31 11:32:14.712959,-0.270508,-0.052124,1.077026,-3.967285,-0.061035,5.676270
2024-12-31 11:32:14.720959,-0.015259,0.071777,1.001709,-2.807617,2.380371,4.577637
2024-12-31 11:32:14.729959,0.012939,-0.065918,0.976929,1.953125,0.976562,0.854492
2024-12-31 11:32:14.737959,-0.016235,0.027832,0.999390,-2.441406,0.122070,1.770020
2024-12-31 11:32:14.746959,-0.061646,0.197266,0.975586,-2.136230,0.854492,-0.854492
2024-12-31 11:32:14.754959,-0.089478,-0.024658,1.049072,-3.112793,1.525879,-4.211426
2024-12-31 11:32:14.763959,0.029053,0.126709,1.015259,-3.662109,-1.098633,-6.591797
2024-12-31 11:32:14.771959,-0.186523,-0.024048,1.002808,-3.479004,1.525879,-5.004883
2024-12-31 11:32:14.780959,-0.232422,-0.017578,1.037476,-5.249023,1.220703,-9.460449
2024-12-31 11:32:14.788959,-0.143799,0.046021,1.015625,-3.784180,1.831055,-8.911133
2024-12-31 11:32:14.797959,-0.217651,0.023804,1.094482,-6.164551,-0.854492,-9.094238
2024-12-31 11:32:14.805959,-0.403809,-0.057129,1.024414,-4.089355,-0.915527,-13.183594
2024-12-31 11:32:14.814959,-0.320190,-0.014526,1.006714,-6.347656,1.403809,-15.869141
2024-12-31 11:32:14.822959,-0.136353,0.047241,0.997681,-2.014160,1.159668,-9.155273
2024-12-31 11:32:14.830959,-0.398804,-0.166870,1.028442,-3.051758,0.366211,-3.967285
2024-12-31 11:32:14.839959,0.016968,0.335449,0.942383,-2.136230,4.089355,-1.037598
2024-12-31 11:32:14.847959,-0.092529,-0.015503,1.030640,-4.821777,1.647949,-5.554199
2024-12-31 11:32:14.856959,-0.144043,0.088867,1.034668,-3.845215,2.868652,-3.051758
2024-12-31 11:32:14.864959,-0.080322,0.171387,0.955200,-5.249023,1.159668,-9.399414
2024-12-31 11:32:14.873959,-0.107544,0.132568,0.975708,-3.967285,1.770020,-23.315430
2024-12-31 11:32:14.881959,-0.126831,0.112305,0.985596,-5.432129,0.915527,-30.578613
2024-12-31 11:32:14.890959,-0.171509,0.067261,0.950928,-2.746582,1.342773,-28.991699
2024-12-31 11:32:14.898959,-0.094482,0.134888,1.024292,-9.216309,1.770020,-25.451660
2024-12-31 11:32:14.907959,-0.097656,0.109131,0.953247,-2.990723,2.014160,-27.160645
2024-12-31 11:32:14.915959,-0.201904,0.000366,0.970459,-0.671387,2.685547,-27.832031
2024-12-31 11:32:14.924959,-0.172119,0.014160,0.989502,-2.197266,-1.953125,-33.081055
2024-12-31 11:32:14.932959,-0.067383,-0.043335,1.085083,-0.427246,-1.647949,-33.508301
2024-12-31 11:32:14.941959,-0.202026,0.088013,0.980713,-2.868652,1.892090,-31.188965
2024-12-31 11:32:14.949959,-0.233643,-0.016602,0.983643,-2.807617,2.685547,-30.578613
2024-12-31 11:32:14.957959,-0.054321,-0.083374,1.041382,0.061035,2.929688,-30.578613
2024-12-31 11:32:14.966959,-0.240601,-0.079590,1.020996,-1.892090,6.774902,-28.991699
2024-12-31 11:32:14.974959,-0.001221,-0.014648,1.068848,-4.028320,2.624512,-34.790039
2024-12-31 11:32:14.983959,0.001099,-0.230713,1.091797,-2.929688,2.685547,-27.404785
2024-12-31 11:32:14.991959,-0.096924,0.108887,1.003540,-5.249023,0.366211,-32.348633
2024-12-31 11:32:15.000959,-0.249512,0.008301,0.909302,-6.835938,-0.732422,-30.761719
2024-12-31 11:32:15.008959,-0.073242,-0.253174,1.070923,-0.244141,2.258301,-28.625488
2024-12-31 11:32:15.017959,-0.088013,0.015991,1.016235,-0.915527,1.770020,-34.851074
2024-12-31 11:32:15.025959,-0.220215,0.136719,0.932129,-0.488281,2.807617,-31.250000
2024-12-31 11:32:15.034959,-0.091064,0.001587,0.966553,-4.211426,2.075195,-28.137207
2024-12-31 11:32:15.042959,-0.337769,0.022461,0.863037,-3.845215,0.915527,-30.944824
2024-12-31 11:32:15.051959,-0.218750,0.004028,0.948364,-4.089355,1.708984,-30.700684
2024-12-31 11:32:15.059959,0.072998,-0.063232,1.052734,-3.112793,0.183105,-25.817871
2024-12-31 11:32:15.068959,-0.013794,0.060913,1.010132,-7.873535,1.831055,-20.996094
2024-12-31 11:32:15.076959,-0.001465,-0.104126,0.977783,-2.441406,-0.122070,-24.169922
2024-12-31 11:32:15.084959,-0.189941,-0.027832,0.957397,-4.211426,-2.807617,-25.390625
2024-12-31 11:32:15.093959,0.120239,-0.291992,1.081299,-5.065918,-0.915527,-21.972656
2024-12-31 11:32:15.101959,-0.044434,-0.186768,1.042480,-7.263184,0.061035,-24.597168
2024-12-31 11:32:15.110959,-0.071533,-0.170288,1.063843,-4.455566,0.000000,-18.188477
2024-12-31 11:32:15.118959,0.163818,-0.137329,1.039307,-3.479004,1.159668,-14.343262
2024-12-31 11:32:15.127959,0.122437,-0.132324,1.140503,-8.239746,1.098633,-13.610840
2024-12-31 11:32:15.135959,-0.030396,-0.104736,1.023438,1.037598,1.525879,-13.549805
2024-12-31 11:32:15.144959,-0.015137,-0.061890,1.049683,-4.272461,2.258301,-7.263184
2024-12-31 11:32:15.152959,-0.209961,-0.136963,0.865845,-0.671387,2.929688,-5.249023
2024-12-31 11:32:15.161959,-0.123657,-0.210693,0.994507,-3.601074,0.183105,-5.249023
2024-12-31 11:32:15.169959,-0.070557,-0.110718,1.008667,-1.464844,-1.831055,-4.455566
2024-12-31 11:32:15.178959,0.248535,-0.245605,1.084229,-3.295898,3.295898,-2.990723
2024-12-31 11:32:15.186959,0.228271,-0.057739,1.038574,-5.798340,0.366211,3.601074
2024-12-31 11:32:15.195959,0.140625,-0.122681,1.097412,-0.305176,-2.319336,-2.502441
2024-12-31 11:32:15.203959,0.061401,-0.003906,0.967773,-3.234863,1.098633,-3.234863
2024-12-31 11:32:15.211959,0.117798,-0.158691,1.109863,-3.051758,-0.305176,1.831055
2024-12-31 11:32:15.220959,-0.025879,-0.132690,0.958984,-3.906250,1.220703,8.239746
2024-12-31 11:32:15.228959,-0.127075,-0.151245,0.931274,-4.882812,1.281738,9.643555
2024-12-31 11:32:15.237959,-0.148804,-0.233887,0.906860,-1.037598,-0.244141,9.399414
2024-12-31 11:32:15.245959,0.039795,-0.153564,0.994507,-5.493164,1.770020,11.230469
2024-12-31 11:32:15.254959,0.030273,-0.089722,0.972534,-1.098633,1.281738,14.221191
2024-12-31 11:32:15.262959,0.093384,-0.161377,1.003906,-2.868652,1.525879,19.226074
2024-12-31 11:32:15.271959,0.176514,-0.164062,1.017212,-5.249023,2.319336,19.714355
2024-12-31 11:32:15.279959,0.145020,-0.013184,1.002808,-7.629395,2.014160,20.385742
2024-12-31 11:32:15.288959,0.232788,-0.100830,1.011597,1.831055,-0.183105,21.118164
2024-12-31 11:32:15.296959,0.286133,-0.016479,1.049683,-6.042480,1.342773,24.597168
2024-12-31 11:32:15.305959,0.065430,-0.165527,0.964966,-2.441406,2.258301,26.428223
2024-12-31 11:32:15.313959,0.187256,-0.157715,1.000610,-2.685547,-0.549316,30.883789
2024-12-31 11:32:15.321959,0.117432,-0.083374,1.024658,-2.258301,2.807617,33.630371
2024-12-31 11:32:15.330959,0.099854,-0.044434,1.006714,0.122070,0.549316,39.489746
2024-12-31 11:32:15.338959,0.138184,0.000366,1.019165,2.197266,0.671387,40.283203
2024-12-31 11:32:15.347959,0.043701,-0.048706,0.958496,-1.037598,1.403809,39.245605
2024-12-31 11:32:15.355959,0.165161,0.055786,0.960693,-1.464844,2.990723,37.963867
2024-12-31 11:32:15.364959,0.248413,0.068237,0.993286,-2.197266,1.342773,36.499023
2024-12-31 11:32:15.372959,0.166138,0.031616,1.009033,-8.239746,0.915527,38.208008
2024-12-31 11:32:15.381959,0.171021,0.122192,0.975586,-7.019043,0.976562,35.522461
2024-12-31 11:32:15.389959,0.155396,0.029663,0.939209,-1.220703,1.586914,34.301758
2024-12-31 11:32:15.398959,0.182373,0.090210,1.033936,1.098633,4.455566,30.822754
2024-12-31 11:32:15.406959,0.088501,0.050781,1.001099,-3.295898,1.708984,32.104492
2024-12-31 11:32:15.415959,0.092041,-0.079468,0.935059,0.000000,2.136230,36.560059
2024-12-31 11:32:15.423959,-0.049561,-0.015747,1.035156,-1.708984,2.380371,29.541016
2024-12-31 11:32:15.432959,0.141846,-0.016846,0.989868,-3.662109,3.173828,27.832031
2024-12-31 11:32:15.440959,0.044556,-0.017700,1.064087,-2.990723,-0.488281,25.207520
2024-12-31 11:32:15.448959,-0.046387,-0.086548,1.008911,-2.929688,3.540039,20.996094
2024-12-31 11:32:15.457959,-0.232300,-0.069336,0.988037,-0.671387,1.220703,25.756836
2024-12-31 11:32:15.465959,0.062378,-0.037964,0.957031,-3.112793,-1.708984,26.062012
2024-12-31 11:32:15.474959,0.082886,-0.098999,1.002563,4.760742,3.845215,23.498535
2024-12-31 11:32:15.482959,-0.030151,-0.064453,0.986206,-0.793457,-0.366211,25.146484
2024-12-31 11:32:15.491959,-0.185181,-0.066528,1.041748,-6.347656,5.187988,27.221680
2024-12-31 11:32:15.499959,0.003540,-0.077515,0.960815,-2.990723,-2.502441,29.052734
2024-12-31 11:32:15.508959,0.006836,0.002197,1.050903,-6.835938,5.676270,23.193359
2024-12-31 11:32:15.516959,-0.141113,-0.105103,1.056519,-4.394531,1.342773,28.198242
2024-12-31 11:32:15.525959,-0.098511,0.005127,0.982056,-1.159668,0.610352,25.085449
2024-12-31 11:32:15.533959,-0.083008,0.084839,1.077759,-5.493164,0.305176,23.437500
2024-12-31 11:32:15.542959,-0.090820,-0.070435,0.968750,-2.197266,3.845215,21.118164
2024-12-31 11:32:15.550959,-0.074097,0.007080,1.030762,-3.540039,-0.244141,20.202637
2024-12-31 11:32:15.558959,-0.081909,0.043579,1.001587,-3.784180,0.366211,24.719238
2024-12-31 11:32:15.567959,-0.176025,0.012451,1.027100,-3.601074,1.159668,22.460938
2024-12-31 11:32:15.575959,-0.015259,-0.038330,0.979736,3.173828,1.159668,22.827148
2024-12-31 11:32:15.584959,-0.166992,0.041382,0.997314,-1.647949,0.976562,22.521973
2024-12-31 11:32:15.592959,-0.226685,-0.138794,1.010010,2.563477,1.098633,25.390625
2024-12-31 11:32:15.601959,-0.093750,-0.006836,1.013184,-2.014160,0.000000,21.606445
2024-12-31 11:32:15.609959,-0.146118,0.153442,1.096924,1.831055,1.159668,25.207520
2024-12-31 11:32:15.618959,-0.121338,0.082520,1.060303,-1.586914,3.662109,24.719238
2024-12-31 11:32:15.626959,-0.226318,0.010376,0.990234,-4.821777,1.159668,23.864746
2024-12-31 11:32:15.635959,-0.171875,0.008179,1.044434,-3.540039,0.976562,21.789551
2024-12-31 11:32:15.643959,-0.180420,-0.097412,0.948853,-3.967285,3.356934,23.071289
2024-12-31 11:32:15.652959,-0.038330,-0.025635,1.002808,-1.708984,0.427246,27.709961
2024-12-31 11:32:15.660959,-0.092529,0.088623,1.048340,-4.394531,1.281738,24.597168
2024-12-31 11:32:15.669959,-0.094971,0.102661,1.007446,-5.981445,3.967285,22.766113
2024-12-31 11:32:15.677959,-0.005371,0.160400,1.034668,0.732422,0.976562,26.123047
2024-12-31 11:32:15.685959,-0.245483,-0.002563,0.960571,-3.784180,0.549316,22.644043
2024-12-31 11:32:15.694959,-0.093018,0.137451,1.010254,-4.150391,0.305176,19.775391
2024-12-31 11:32:15.702959,-0.061646,0.183960,1.012451,-5.859375,1.403809,18.493652
2024-12-31 11:32:15.711959,-0.167114,0.028564,1.021362,-4.943848,0.305176,15.136719
2024-12-31 11:32:15.719959,-0.239746,0.090698,0.980591,-3.601074,1.342773,12.451172
2024-12-31 11:32:15.728959,-0.150757,0.034790,1.020874,-3.051758,4.211426,13.366699
2024-12-31 11:32:15.736959,-0.158325,0.062134,0.998535,-6.835938,3.173828,19.409180
2024-12-31 11:32:15.745959,-0.012451,0.204468,1.026978,-0.976562,-0.610352,11.535645
2024-12-31 11:32:15.753959,-0.149658,0.140259,1.001831,-1.159668,1.831055,8.300781
2024-12-31 11:32:15.762959,-0.262939,-0.057861,0.947632,-3.051758,2.685547,7.324219
2024-12-31 11:32:15.770959,-0.009888,0.151855,1.056030,-1.037598,1.220703,6.164551
2024-12-31 11:32:15.779959,-0.093872,0.082275,1.013428,-4.638672,2.319336,7.812500
2024-12-31 11:32:15.787959,-0.056885,0.136841,1.012451,0.610352,2.807617,3.540039
2024-12-31 11:32:15.796959,-0.233521,-0.071899,0.951904,-0.427246,2.075195,5.126953
2024-12-31 11:32:15.804959,0.005371,0.194824,1.049927,-3.845215,1.892090,5.615234
2024-12-31 11:32:15.812959,-0.212646,-0.136475,0.970703,-0.671387,-0.854492,9.216309
2024-12-31 11:32:15.821959,-0.126953,0.143555,0.942871,-4.821777,1.831055,6.774902
2024-12-31 11:32:15.829959,0.021606,0.152222,1.083130,-2.136230,0.427246,3.784180
2024-12-31 11:32:15.838959,-0.018066,-0.041992,0.997803,-2.075195,2.197266,2.502441
2024-12-31 11:32:15.846959,-0.111694,-0.110596,0.986694,-4.699707,-1.647949,4.455566
2024-12-31 11:32:15.855959,-0.204224,0.029663,0.916870,2.258301,2.380371,-7.080078
2024-12-31 11:32:15.863959,-0.026611,0.080200,0.978271,-8.422852,-0.976562,-3.967285
2024-12-31 11:32:15.872959,-0.045044,0.102051,0.988770,-4.577637,-0.427246,-11.230469
2024-12-31 11:32:15.880959,-0.243408,0.002075,0.898560,-4.577637,-0.061035,-10.070801
2024-12-31 11:32:15.889959,-0.138916,0.053223,0.941040,-5.371094,-1.159668,-10.681152
2024-12-31 11:32:15.897959,0.025146,-0.049805,0.969727,-1.281738,0.976562,-13.549805
2024-12-31 11:32:15.906959,-0.029419,-0.066284,0.950073,-2.380371,-2.380371,-11.840820
2024-12-31 11:32:15.914959,-0.072021,-0.141968,0.985474,-8.728027,0.610352,-7.934570
2024-12-31 11:32:15.922959,0.169922,-0.054443,1.005127,-2.258301,0.427246,-11.291504
2024-12-31 11:32:15.931959,-0.165283,-0.065430,0.914673,-4.577637,0.122070,-15.075684
2024-12-31 11:32:15.939959,-0.057617,-0.105225,0.950562,0.061035,1.098633,-16.662598
2024-12-31 11:32:15.948959,0.109619,-0.085571,1.032227,-4.150391,0.305176,-12.268066
2024-12-31 11:32:15.956959,0.073364,-0.072021,1.022095,-2.380371,1.159668,-5.737305
2024-12-31 11:32:15.965959,0.141968,-0.048706,1.100830,-4.089355,0.122070,-3.356934
2024-12-31 11:32:15.973959,-0.026123,-0.076782,0.982666,-2.929688,0.488281,-4.211426
2024-12-31 11:32:15.982959,0.101807,-0.079346,1.042969,-2.990723,1.586914,-8.789062
2024-12-31 11:32:15.990959,0.035400,-0.134033,1.013794,-4.150391,0.244141,-9.399414
2024-12-31 11:32:15.999959,-0.202881,-0.173340,0.949829,-5.798340,3.723145,-3.723145
2024-12-31 11:32:16.007959,0.002075,-0.271484,0.949463,-4.028320,2.990723,0.000000
2024-12-31 11:32:16.016959,0.215088,-0.132935,1.041016,-3.845215,1.708984,4.821777
2024-12-31 11:32:16.024959,0.131592,-0.152100,1.008911,-3.356934,1.770020,6.713867
2024-12-31 11:32:16.033959,-0.007324,-0.191162,0.961304,-3.479004,0.427246,15.991211
2024-12-31 11:32:16.041959,0.078247,-0.220215,1.046875,-2.319336,0.305176,19.897461
2024-12-31 11:32:16.049959,0.160156,-0.075317,1.027832,-3.662109,0.671387,24.780273
2024-12-31 11:32:16.058959,0.227783,-0.067871,1.033813,-4.394531,4.028320,26.428223
2024-12-31 11:32:16.066959,0.243530,-0.080444,1.070679,-0.122070,1.953125,29.846191
2024-12-31 11:32:16.075959,-0.042969,-0.230469,1.014526,-2.258301,0.793457,26.977539
2024-12-31 11:32:16.083959,0.201050,-0.013062,1.036499,-0.854492,0.244141,35.888672
2024-12-31 11:32:16.092959,0.279297,-0.078613,1.034302,-2.075195,3.967285,39.184570
2024-12-31 11:32:16.100959,0.065796,-0.102417,0.943726,-2.563477,4.028320,41.381836
2024-12-31 11:32:16.109959,0.019165,0.009766,1.080200,-7.873535,0.976562,40.588379
2024-12-31 11:32:16.117959,0.127441,0.000732,0.982910,-3.051758,-0.671387,39.916992
2024-12-31 11:32:16.126959,0.080078,0.105591,1.043701,-4.333496,2.380371,36.743164
2024-12-31 11:32:16.134959,0.102661,-0.089966,0.952271,0.305176,2.807617,40.588379
2024-12-31 11:32:16.143959,0.196655,-0.078125,0.918823,-3.723145,-0.366211,43.579102
2024-12-31 11:32:16.151959,0.214111,0.023682,1.006836,-2.929688,2.136230,41.748047
2024-12-31 11:32:16.160959,0.144409,0.054077,0.980835,-5.615234,1.831055,41.564941
2024-12-31 11:32:16.168959,0.171265,0.032959,0.995850,-3.784180,0.976562,43.395996
2024-12-31 11:32:16.176959,0.270264,0.024536,0.925537,-4.516602,2.136230,42.785645
2024-12-31 11:32:16.185959,0.364258,0.004028,0.881836,0.671387,2.685547,45.288086
2024-12-31 11:32:16.193959,0.235718,0.047607,0.946411,-5.859375,-0.549316,49.438477
2024-12-31 11:32:16.202959,-0.007568,0.022949,0.960449,-1.831055,0.366211,51.330566
2024-12-31 11:32:16.210959,0.033325,0.016479,1.024536,-1.098633,5.371094,45.166016
2024-12-31 11:32:16.219959,0.046509,0.101685,1.006714,-2.563477,1.831055,49.926758
2024-12-31 11:32:16.227959,-0.101318,0.098877,1.080200,-1.281738,1.342773,52.307129
2024-12-31 11:32:16.236959,0.179932,0.189941,1.008789,-4.028320,0.183105,41.992188
2024-12-31 11:32:16.244959,0.193970,0.127930,0.981567,-5.981445,2.197266,37.719727
2024-12-31 11:32:16.253959,0.147583,0.084717,0.975220,-7.446289,1.647949,31.127930
2024-12-31 11:32:16.261959,0.175049,0.105103,0.978638,-1.342773,2.075195,38.635254
2024-12-31 11:32:16.270959,0.037476,0.075073,0.928101,0.793457,1.525879,31.860352
2024-12-31 11:32:16.278959,0.047729,0.020020,0.997803,1.342773,0.976562,28.686523
2024-12-31 11:32:16.286959,-0.014771,0.128418,0.943115,-5.371094,1.159668,25.695801
2024-12-31 11:32:16.295959,-0.011475,0.045288,1.015869,-2.258301,1.464844,26.977539
2024-12-31 11:32:16.303959,0.109009,0.153809,0.992188,-2.380371,-0.976562,31.066895
2024-12-31 11:32:16.312959,0.080078,0.010742,0.977295,-1.464844,2.441406,23.620605
2024-12-31 11:32:16.320959,0.058594,0.015015,0.998779,1.586914,2.563477,26.611328
2024-12-31 11:32:16.329959,0.030151,0.136719,1.088745,-1.525879,3.417969,31.066895
2024-12-31 11:32:16.337959,0.057617,0.065674,1.050537,-0.854492,3.234863,24.353027
2024-12-31 11:32:16.346959,0.117798,0.085205,0.989746,0.183105,2.502441,20.568848
2024-12-31 11:32:16.354959,-0.167603,0.154785,1.058838,-4.882812,1.770020,18.127441
2024-12-31 11:32:16.363959,-0.088745,0.074585,1.038696,-2.868652,0.793457,18.737793
2024-12-31 11:32:16.371959,0.021729,0.022583,0.959351,-1.892090,1.159668,15.014648
2024-12-31 11:32:16.380959,-0.228394,0.138672,1.077393,-4.150391,3.417969,10.681152
2024-12-31 11:32:16.388959,0.199463,0.091309,0.951416,0.366211,-1.159668,7.385254
2024-12-31 11:32:16.397959,-0.136230,0.048584,1.005005,-4.394531,2.502441,4.028320
2024-12-31 11:32:16.405959,-0.031372,-0.028076,0.969238,-4.272461,1.159668,9.643555
2024-12-31 11:32:16.413959,-0.062988,0.060669,1.015259,-2.868652,1.708984,4.577637
2024-12-31 11:32:16.422959,0.085083,0.155273,0.941406,-1.342773,-1.586914,1.647949
2024-12-31 11:32:16.430959,-0.117432,0.069580,1.032349,-0.549316,4.638672,-3.234863
2024-12-31 11:32:16.439959,-0.143311,0.037598,1.074463,2.746582,1.647949,-3.479004
2024-12-31 11:32:16.447959,0.026855,0.150879,0.967529,-4.394531,0.915527,-6.347656
2024-12-31 11:32:16.456959,-0.111206,0.109497,1.037231,-6.835938,1.831055,-10.375977
2024-12-31 11:32:16.464959,-0.085327,0.137695,1.035156,-3.173828,-0.488281,-11.352539
2024-12-31 11:32:16.473959,-0.148804,0.068237,1.036499,-7.873535,3.295898,-13.000488
2024-12-31 11:32:16.481959,-0.310303,0.172119,1.025513,-3.784180,2.441406,-17.272949
2024-12-31 11:32:16.490959,0.009521,0.073486,0.992432,-2.563477,-0.061035,-20.263672
2024-12-31 11:32:16.498959,-0.105469,0.140381,0.974365,-5.859375,0.244141,-20.690918
2024-12-31 11:32:16.507959,-0.025635,0.196045,1.005005,-1.647949,-1.831055,-18.676758
2024-12-31 11:32:16.515959,-0.216553,-0.045898,1.031738,-2.685547,-0.549316,-25.817871
2024-12-31 11:32:16.523959,-0.121704,0.064819,0.987061,-0.488281,0.183105,-28.808594
2024-12-31 11:32:16.532959,-0.038940,0.175171,1.005371,2.868652,2.380371,-29.052734
2024-12-31 11:32:16.540959,-0.126709,0.087646,0.961182,-5.859375,4.089355,-28.686523
2024-12-31 11:32:16.549959,-0.138062,-0.147949,1.061646,-8.300781,0.976562,-31.311035
2024-12-31 11:32:16.557959,-0.111816,-0.022461,0.999268,-7.629395,0.122070,-30.944824
2024-12-31 11:32:16.566959,0.008179,-0.078857,1.031250,-0.183105,1.037598,-33.081055
2024-12-31 11:32:16.574959,-0.142334,0.090576,0.988403,-2.624512,1.770020,-34.179688
2024-12-31 11:32:16.583959,-0.086548,-0.053589,1.022461,-4.455566,0.427246,-38.696289
2024-12-31 11:32:16.591959,-0.170166,0.002075,0.971802,-4.089355,0.976562,-37.597656
2024-12-31 11:32:16.600959,-0.016602,-0.079712,1.014160,-7.568359,4.272461,-34.118652
2024-12-31 11:32:16.608959,-0.026489,-0.077759,1.078125,-4.211426,-4.211426,-31.677246
2024-12-31 11:32:16.617959,-0.062256,-0.008423,0.985229,-2.014160,-2.380371,-28.930664
2024-12-31 11:32:16.625959,-0.080688,-0.001831,1.004150,-3.845215,-1.098633,-26.672363
2024-12-31 11:32:16.634959,-0.176147,-0.029907,0.984375,1.098633,2.136230,-23.986816
2024-12-31 11:32:16.642959,-0.050659,-0.091431,1.064331,-5.798340,2.868652,-15.563965
2024-12-31 11:32:16.650959,0.049316,-0.118896,1.073486,-1.831055,3.784180,-15.869141
2024-12-31 11:32:16.659959,-0.108032,-0.038696,0.997192,-6.591797,0.732422,-11.779785
2024-12-31 11:32:16.667959,-0.240967,0.071045,0.933472,-4.821777,1.770020,-15.991211
2024-12-31 11:32:16.676959,-0.078857,-0.016724,1.025513,-0.793457,-2.746582,-23.254395
2024-12-31 11:32:16.684959,0.040894,-0.100952,1.066406,1.098633,1.892090,-14.160156
2024-12-31 11:32:16.693959,-0.100952,-0.223389,1.052979,-1.770020,0.488281,-28.564453
2024-12-31 11:32:16.701959,-0.360229,0.021362,0.890625,0.549316,-2.441406,-26.855469
2024-12-31 11:32:16.710959,-0.120361,-0.099854,1.027466,-2.685547,-1.953125,-18.554688
2024-12-31 11:32:16.718959,0.220459,-0.207520,1.217163,-5.065918,-0.488281,-18.615723
2024-12-31 11:32:16.727959,-0.073120,0.023926,0.991089,0.488281,3.967285,-13.732910
2024-12-31 11:32:16.735959,-0.028931,-0.132935,1.094116,-5.310059,-0.610352,-17.150879
2024-12-31 11:32:16.744959,0.050171,-0.046509,1.103638,-3.295898,2.746582,-21.179199
2024-12-31 11:32:16.752959,0.142212,-0.020020,1.095337,-1.708984,1.586914,-22.155762
2024-12-31 11:32:16.761959,-0.005371,0.033813,1.071533,2.563477,3.601074,-26.306152
2024-12-31 11:32:16.769959,-0.095215,-0.069946,1.023926,-3.540039,2.807617,-28.442383
2024-12-31 11:32:16.777959,-0.024292,0.086792,0.999023,-5.554199,0.366211,-32.348633
2024-12-31 11:32:16.786959,0.139648,0.096191,1.097534,-3.784180,-1.098633,-28.442383
2024-12-31 11:32:16.794959,-0.140625,-0.030884,0.957397,-0.488281,0.427246,-33.935547
2024-12-31 11:32:16.803959,0.008179,0.026733,1.008911,0.305176,-0.427246,-34.301758
2024-12-31 11:32:16.811959,0.094604,0.113525,1.051147,-1.831055,-1.647949,-38.391113
2024-12-31 11:32:16.820959,-0.349731,-0.026611,0.803101,-3.112793,1.953125,-34.240723
2024-12-31 11:32:16.828959,0.207642,-0.105347,1.091431,-2.807617,2.136230,-34.667969
2024-12-31 11:32:16.837959,-0.048340,-0.101074,0.981201,-6.042480,2.197266,-34.545898
2024-12-31 11:32:16.845959,-0.104004,0.097900,0.975464,-4.882812,0.305176,-35.339355
2024-12-31 11:32:16.854959,0.035278,-0.181641,0.997437,-3.723145,-1.464844,-30.883789
2024-12-31 11:32:16.862959,-0.198364,0.166992,0.971680,-8.361816,-1.525879,-29.785156
2024-12-31 11:32:16.871959,-0.169678,-0.213623,0.941284,0.305176,3.479004,-31.677246
2024-12-31 11:32:16.879959,0.204346,-0.227295,1.044434,-1.892090,0.305176,-29.052734
2024-12-31 11:32:16.888959,0.222778,-0.123779,1.054077,-2.319336,0.000000,-21.789551
2024-12-31 11:32:16.896959,0.226929,-0.065796,1.039673,-3.051758,0.183105,-18.371582
2024-12-31 11:32:16.904959,0.119629,-0.079224,0.944824,-1.953125,0.427246,-16.601562
2024-12-31 11:32:16.913959,0.076172,-0.115723,1.001099,-4.577637,2.014160,-15.014648
2024-12-31 11:32:16.921959,0.150635,-0.136475,1.013062,-4.516602,1.098633,-14.953613
2024-12-31 11:32:16.930959,0.190308,0.003052,0.954102,-4.150391,0.610352,-20.202637
2024-12-31 11:32:16.938959,0.133057,-0.142090,1.006104,2.380371,0.183105,-21.789551
2024-12-31 11:32:16.947959,0.172485,-0.065430,0.986694,-4.577637,-0.976562,-15.014648
2024-12-31 11:32:16.955959,-0.128662,0.038696,1.001953,-6.530762,-0.122070,-11.840820
2024-12-31 11:32:16.964959,-0.294067,0.177490,0.988403,-4.150391,0.366211,-22.155762
2024-12-31 11:32:16.972959,0.186279,-0.424194,1.011230,-7.751465,-3.784180,-48.156738
2024-12-31 11:32:16.981959,0.671509,-0.169556,1.006714,-6.042480,-3.845215,-30.578613
2024-12-31 11:32:16.989959,0.413208,-0.173096,0.953247,-2.685547,3.051758,-4.394531
2024-12-31 11:32:16.998959,0.173706,-0.104614,1.047363,-7.385254,1.342773,1.647949
2024-12-31 11:32:17.006959,0.453003,0.015503,1.059326,-0.854492,2.746582,1.586914
2024-12-31 11:32:17.014959,0.576172,-0.093140,1.054199,-3.540039,3.173828,8.483887
2024-12-31 11:32:17.023959,-0.155884,0.025635,1.018066,-3.906250,-1.403809,9.399414
2024-12-31 11:32:17.031959,0.177002,-0.046875,0.990601,-2.380371,0.183105,2.563477
2024-12-31 11:32:17.040959,0.106323,0.043213,0.932495,-4.150391,3.112793,-3.417969
2024-12-31 11:32:17.048959,-0.092896,0.017822,1.118530,-0.549316,-0.732422,2.685547
2024-12-31 11:32:17.057959,-0.210205,0.057373,1.082886,-3.540039,5.004883,1.464844
2024-12-31 11:32:17.065959,-0.142212,-0.003052,0.868408,0.183105,-0.793457,-3.417969
2024-12-31 11:32:17.074959,0.113525,0.007812,1.030884,-3.601074,2.929688,-2.624512
2024-12-31 11:32:17.082959,0.148682,0.101440,0.962891,-1.464844,-1.647949,-4.150391
2024-12-31 11:32:17.091959,-0.011841,0.019409,0.960449,-2.502441,0.122070,-5.493164
2024-12-31 11:32:17.099959,-0.067993,-0.126465,1.018677,-1.098633,2.563477,-2.502441
2024-12-31 11:32:17.108959,0.586914,0.147583,1.000244,1.220703,1.281738,8.544922
2024-12-31 11:32:17.116959,-0.115723,0.063232,0.976929,-6.774902,-2.136230,1.586914
2024-12-31 11:32:17.125959,0.095581,-0.018433,0.965698,-3.906250,-1.464844,-4.272461
2024-12-31 11:32:17.133959,0.069946,-0.091797,1.164795,-2.746582,3.417969,-4.211426
2024-12-31 11:32:17.141959,0.057861,0.009644,0.919434,-3.051758,2.136230,1.098633
2024-12-31 11:32:17.150959,-0.127808,-0.060547,1.064209,-5.310059,0.976562,2.563477
2024-12-31 11:32:17.158959,0.031982,-0.007446,0.994263,-3.906250,0.183105,1.098633
2024-12-31 11:32:17.167959,-0.236206,-0.048218,1.100952,-5.004883,2.685547,-2.014160
2024-12-31 11:32:17.175959,-0.156616,-0.048462,1.007202,0.976562,1.770020,-0.061035
2024-12-31 11:32:17.184959,-0.245605,-0.032593,1.072144,-5.493164,2.807617,1.586914
2024-12-31 11:32:17.192959,0.040894,-0.067017,0.949463,-4.028320,0.854492,-1.708984
2024-12-31 11:32:17.201959,-0.133667,0.071777,0.987915,-5.249023,0.000000,-3.784180
2024-12-31 11:32:17.209959,-0.022827,-0.074585,1.034302,0.854492,1.403809,-3.356934
2024-12-31 11:32:17.218959,0.207031,0.066040,0.945801,-4.577637,1.098633,-6.713867
2024-12-31 11:32:17.226959,-0.174072,-0.004028,0.988403,-1.953125,0.671387,-6.103516
2024-12-31 11:32:17.235959,0.067627,0.012207,0.959351,0.000000,2.319336,-4.516602
2024-12-31 11:32:17.243959,-0.105469,0.045288,1.082642,-4.028320,0.061035,-7.812500
2024-12-31 11:32:17.251959,-0.053833,0.010986,0.976685,-2.563477,1.708984,-2.685547
2024-12-31 11:32:17.260959,0.136597,0.010620,0.961670,-5.004883,2.014160,-7.141113
2024-12-31 11:32:17.268959,-0.287231,-0.015259,1.046387,0.915527,3.112793,-6.225586
2024-12-31 11:32:17.277959,-0.162720,-0.002197,1.033569,-3.112793,1.708984,-6.835938
2024-12-31 11:32:17.285959,-0.015991,-0.050293,1.025879,-0.061035,2.075195,-2.624512
2024-12-31 11:32:17.294959,-0.107178,-0.000244,1.002319,0.427246,0.854492,-3.356934
2024-12-31 11:32:17.302959,-0.126953,0.039185,1.038330,-2.929688,0.549316,-6.225586
2024-12-31 11:32:17.311959,-0.030151,0.088501,1.010620,-2.197266,2.197266,-2.136230
2024-12-31 11:32:17.319959,-0.150879,0.056519,1.039917,-2.990723,1.220703,-7.080078
2024-12-31 11:32:17.328959,-0.185669,0.080444,1.039795,-2.990723,1.647949,-7.202148
2024-12-31 11:32:17.336959,-0.222778,-0.007202,1.088989,-2.746582,-1.342773,-11.047363
2024-12-31 11:32:17.345959,-0.098511,0.039429,1.007690,-3.662109,-0.244141,-7.995605
2024-12-31 11:32:17.353959,-0.090454,0.040527,1.004150,-1.220703,0.976562,-7.629395
2024-12-31 11:32:17.362959,-0.081665,0.021851,1.006958,-0.976562,1.098633,-8.056641
2024-12-31 11:32:17.370959,-0.171875,-0.016724,1.057251,-3.295898,1.525879,-4.882812
2024-12-31 11:32:17.378959,-0.208496,0.009888,1.051392,-0.610352,1.831055,-2.319336
2024-12-31 11:32:17.387959,-0.055420,0.061279,1.059937,-3.723145,5.004883,-2.136230
2024-12-31 11:32:17.395959,-0.026489,0.090332,0.991089,-5.126953,-0.061035,-8.666992
2024-12-31 11:32:17.404959,-0.185791,0.024048,1.022705,-3.479004,1.770020,-7.629395
2024-12-31 11:32:17.412959,-0.215576,0.052002,1.022217,0.061035,0.000000,-8.911133
2024-12-31 11:32:17.421959,-0.086792,0.087402,1.022339,-3.723145,1.831055,-9.948730
2024-12-31 11:32:17.429959,-0.251221,-0.076416,1.063965,-4.150391,1.953125,-8.239746
2024-12-31 11:32:17.438959,-0.065063,0.022827,1.021729,-4.821777,1.403809,-8.972168
2024-12-31 11:32:17.446959,-0.099854,-0.052124,1.035278,-6.958008,1.281738,-15.808105
2024-12-31 11:32:17.455959,-0.163086,-0.108032,1.023193,-8.239746,-0.183105,-23.742676
2024-12-31 11:32:17.463959,-0.096924,0.052246,0.978271,-3.601074,2.929688,-20.874023
2024-12-31 11:32:17.472959,-0.092896,-0.095093,1.030762,-1.464844,-0.305176,-28.320312
2024-12-31 11:32:17.480959,-0.190552,-0.141724,1.050049,-2.136230,0.915527,-28.503418
2024-12-31 11:32:17.489959,-0.111816,-0.022949,0.989990,-0.366211,3.417969,-25.695801
2024-12-31 11:32:17.497959,-0.155029,-0.007690,0.977173,-8.239746,2.136230,-24.597168
2024-12-31 11:32:17.505959,-0.138672,-0.114380,1.009766,-9.399414,0.732422,-21.423340
2024-12-31 11:32:17.514959,-0.155518,-0.087891,1.011597,-4.516602,3.845215,-22.338867
2024-12-31 11:32:17.522959,-0.088379,-0.020508,1.024292,-3.540039,2.197266,-24.963379
2024-12-31 11:32:17.531959,-0.135864,0.015625,1.013550,-1.953125,-1.464844,-25.634766
2024-12-31 11:32:17.539959,-0.076172,0.002808,1.031982,-6.408691,1.708984,-26.184082
2024-12-31 11:32:17.548959,-0.039307,-0.030518,1.048584,-7.507324,1.159668,-26.794434
2024-12-31 11:32:17.556959,-0.149170,-0.123901,0.975098,-4.699707,3.356934,-25.207520
2024-12-31 11:32:17.565959,-0.070312,-0.058594,0.982910,-1.831055,-1.159668,-32.958984
2024-12-31 11:32:17.573959,-0.147949,-0.112671,0.999146,-0.793457,-0.061035,-32.897949
2024-12-31 11:32:17.582959,-0.127319,0.024292,0.973511,1.403809,0.427246,-31.738281
2024-12-31 11:32:17.590959,-0.018433,-0.179077,1.061401,0.305176,1.586914,-33.264160
2024-12-31 11:32:17.599959,-0.211792,0.110474,0.893799,-2.136230,3.173828,-29.418945
2024-12-31 11:32:17.607959,-0.007935,-0.087036,1.038086,-3.479004,1.892090,-32.897949
2024-12-31 11:32:17.615959,-0.008667,0.141724,1.037842,-5.981445,0.183105,-31.311035
2024-12-31 11:32:17.624959,-0.094116,0.000488,1.013672,-1.708984,4.577637,-31.494141
2024-12-31 11:32:17.632959,-0.125366,-0.030884,0.989136,-0.366211,1.037598,-35.217285
2024-12-31 11:32:17.641959,-0.200439,0.176636,0.920654,-4.699707,1.586914,-33.386230
2024-12-31 11:32:17.649959,-0.024414,-0.031006,1.063599,-3.906250,-1.770020,-41.748047
2024-12-31 11:32:17.658959,-0.064331,0.052612,1.009277,-0.244141,-0.122070,-45.776367
2024-12-31 11:32:17.666959,-0.031738,-0.016113,1.000977,-1.281738,4.333496,-43.212891
2024-12-31 11:32:17.675959,0.179688,0.031006,1.020630,-3.784180,2.441406,-43.273926
2024-12-31 11:32:17.683959,0.085571,-0.228271,1.016479,-2.441406,1.892090,-44.433594
2024-12-31 11:32:17.692959,0.051636,-0.194092,1.105347,-7.568359,-2.075195,-46.875000
2024-12-31 11:32:17.700959,-0.063599,0.105957,0.940552,-3.112793,-0.976562,-50.720215
2024-12-31 11:32:17.709959,0.002197,-0.285156,1.093872,-2.990723,-1.464844,-50.476074
2024-12-31 11:32:17.717959,0.164551,-0.142578,1.117920,-4.760742,-0.488281,-45.715332
2024-12-31 11:32:17.726959,-0.042969,-0.003296,1.017944,-9.216309,0.671387,-41.320801
2024-12-31 11:32:17.734959,-0.044678,-0.105225,0.984009,-2.990723,1.220703,-41.320801
2024-12-31 11:32:17.742959,0.043457,-0.217041,1.080200,-1.586914,2.441406,-40.527344
2024-12-31 11:32:17.751959,-0.100952,0.035767,0.891846,0.549316,0.976562,-40.405273
2024-12-31 11:32:17.759959,-0.020508,-0.184814,1.056152,-4.943848,-3.967285,-43.518066
2024-12-31 11:32:17.768959,-0.102905,-0.051514,1.016602,-2.197266,0.976562,-38.696289
2024-12-31 11:32:17.776959,-0.064209,-0.041748,0.947998,-3.234863,-1.281738,-40.100098
2024-12-31 11:32:17.785959,-0.112427,-0.200928,0.963745,-0.549316,-2.136230,-42.053223
2024-12-31 11:32:17.793959,0.022827,-0.146729,1.045532,-6.591797,-1.281738,-36.865234
2024-12-31 11:32:17.802959,-0.049927,-0.148438,0.988647,-3.601074,1.281738,-36.437988
2024-12-31 11:32:17.810959,-0.086670,-0.115356,1.010742,-1.770020,1.159668,-32.104492
2024-12-31 11:32:17.819959,-0.098389,-0.081665,0.948975,-0.183105,0.854492,-30.273438
2024-12-31 11:32:17.827959,0.337891,-0.161011,1.111938,-2.197266,1.281738,-20.446777
2024-12-31 11:32:17.836959,-0.084351,-0.115356,0.968872,-7.019043,-0.122070,-21.057129
2024-12-31 11:32:17.844959,-0.011475,-0.154663,1.028320,-1.525879,0.061035,-11.047363
2024-12-31 11:32:17.852959,0.107178,-0.099487,1.061279,-7.385254,0.244141,-6.469727
2024-12-31 11:32:17.861959,-0.157471,-0.135864,0.961670,-2.319336,-0.488281,-7.080078
2024-12-31 11:32:17.869959,-0.155396,-0.181885,0.967407,-4.333496,2.075195,-0.671387
2024-12-31 11:32:17.878959,0.111938,-0.026001,1.075806,-9.155273,0.671387,4.882812
2024-12-31 11:32:17.886959,-0.011230,-0.136230,1.025146,1.586914,-0.671387,0.854492
2024-12-31 11:32:17.895959,0.003540,-0.036987,1.046875,-3.356934,0.732422,4.028320
2024-12-31 11:32:17.903959,0.003784,-0.083252,1.002563,-4.943848,1.770020,10.986328
2024-12-31 11:32:17.912959,-0.147827,-0.153687,0.969971,-3.662109,-1.708984,11.047363
2024-12-31 11:32:17.920959,0.158936,0.022461,1.083618,-6.530762,0.976562,10.253906
2024-12-31 11:32:17.929959,0.027100,-0.060913,1.023315,-0.610352,1.708984,10.131836
2024-12-31 11:32:17.937959,0.188354,-0.057739,1.053345,-1.953125,-0.610352,14.160156
2024-12-31 11:32:17.946959,0.011719,-0.062988,1.036987,-5.371094,0.793457,15.625000
2024-12-31 11:32:17.954959,0.133667,-0.029419,0.998413,-0.610352,0.976562,14.953613
2024-12-31 11:32:17.963959,0.097656,-0.061646,1.026978,-5.065918,1.525879,18.554688
2024-12-31 11:32:17.971959,-0.024658,-0.120605,0.946777,-5.981445,0.671387,20.263672
2024-12-31 11:32:17.979959,0.035767,-0.196533,0.996826,-1.953125,2.563477,21.301270
2024-12-31 11:32:17.988959,0.181152,-0.016479,1.036377,-4.699707,2.868652,24.780273
2024-12-31 11:32:17.996959,0.039307,-0.179321,0.992432,-1.647949,2.197266,23.559570
2024-12-31 11:32:18.005959,0.237427,0.133911,1.048828,-6.286621,0.427246,25.756836
2024-12-31 11:32:18.013959,0.113037,-0.206055,1.000732,-0.976562,1.586914,24.963379
2024-12-31 11:32:18.022959,0.010498,-0.120972,0.986572,-7.324219,1.159668,31.555176
2024-12-31 11:32:18.030959,0.101685,-0.193604,0.981323,-1.037598,2.441406,32.714844
2024-12-31 11:32:18.039959,0.163574,-0.066040,1.003052,-4.272461,0.915527,32.165527
2024-12-31 11:32:18.047959,0.145020,0.000610,1.022827,-3.173828,0.488281,32.592773
2024-12-31 11:32:18.056959,0.050171,0.018066,1.040283,-1.159668,0.244141,34.790039
2024-12-31 11:32:18.064959,0.241577,-0.020508,0.956543,1.403809,3.051758,35.400391
2024-12-31 11:32:18.073959,0.141479,0.047241,1.048584,-1.464844,1.403809,36.682129
2024-12-31 11:32:18.081959,0.160156,-0.008179,0.993042,-1.037598,2.014160,36.010742
2024-12-31 11:32:18.090959,0.097412,0.013916,0.950684,0.000000,3.479004,33.203125
2024-12-31 11:32:18.098959,0.163818,-0.070190,0.987061,-1.647949,1.281738,35.156250
2024-12-31 11:32:18.106959,0.103760,-0.017212,1.004761,-0.732422,0.549316,36.926270
2024-12-31 11:32:18.115959,0.000977,0.071411,1.027832,-3.540039,3.540039,32.592773
2024-12-31 11:32:18.123959,0.092773,-0.016724,1.022827,-2.990723,1.281738,31.677246
2024-12-31 11:32:18.132959,0.083862,0.002441,1.025146,-2.624512,2.197266,33.447266
2024-12-31 11:32:18.140959,-0.004517,0.002319,1.065063,-7.324219,2.441406,32.714844
2024-12-31 11:32:18.149959,-0.100952,-0.020630,1.020630,-2.929688,1.770020,37.414551
2024-12-31 11:32:18.157959,0.030396,0.043091,1.052612,-0.427246,0.427246,35.278320
2024-12-31 11:32:18.166959,-0.250244,-0.052979,1.056641,-1.708984,2.136230,33.081055
2024-12-31 11:32:18.174959,-0.006470,-0.090698,0.968628,0.000000,1.464844,26.672363
2024-12-31 11:32:18.183959,-0.042114,-0.081055,0.976929,-0.610352,3.417969,21.545410
2024-12-31 11:32:18.191959,-0.081787,-0.014648,1.018555,-3.173828,0.793457,23.498535
2024-12-31 11:32:18.200959,0.039185,0.024658,1.036987,-3.662109,0.793457,23.498535
2024-12-31 11:32:18.208959,-0.058472,0.027344,1.072876,-5.493164,0.427246,18.432617
2024-12-31 11:32:18.217959,-0.110107,-0.042480,1.013184,3.479004,3.234863,23.132324
2024-12-31 11:32:18.225959,-0.089111,-0.039917,0.971069,0.976562,4.333496,20.812988
2024-12-31 11:32:18.233959,-0.078247,0.035645,1.025269,-1.647949,0.854492,14.282227
2024-12-31 11:32:18.242959,-0.140991,-0.009521,1.072754,-0.183105,-2.075195,20.812988
2024-12-31 11:32:18.250959,-0.121216,-0.060059,0.968262,-0.366211,2.502441,17.700195
2024-12-31 11:32:18.259959,-0.134277,-0.034668,0.987183,-6.530762,2.990723,20.202637
2024-12-31 11:32:18.267959,-0.065918,-0.036743,1.012695,-6.347656,1.281738,22.827148
2024-12-31 11:32:18.276959,0.009277,0.043457,0.990112,-4.943848,-0.854492,20.568848
2024-12-31 11:32:18.284959,-0.117310,0.118652,1.033325,-2.685547,1.159668,19.714355
2024-12-31 11:32:18.293959,-0.123169,0.016235,1.000854,-2.685547,1.464844,21.301270
2024-12-31 11:32:18.301959,0.041748,0.037231,1.045166,-5.249023,1.281738,20.141602
2024-12-31 11:32:18.310959,0.077271,0.072754,1.061646,-3.784180,1.586914,16.845703
2024-12-31 11:32:18.318959,0.087891,0.088501,1.038330,-3.234863,0.793457,20.812988
2024-12-31 11:32:18.327959,-0.046997,0.136475,1.075073,-4.272461,1.464844,21.240234
2024-12-31 11:32:18.335959,-0.103271,0.138916,1.105103,-0.854492,-0.793457,21.972656
2024-12-31 11:32:18.343959,-0.109131,0.173584,1.050537,-3.295898,0.732422,20.874023
2024-12-31 11:32:18.352959,-0.061890,0.040894,1.021729,-3.906250,3.417969,20.690918
2024-12-31 11:32:18.360959,-0.147095,0.064453,1.010620,-3.356934,0.488281,21.240234
2024-12-31 11:32:18.369959,-0.070679,0.011475,1.001587,-4.089355,3.479004,18.005371
2024-12-31 11:32:18.377959,-0.153931,0.130371,1.010986,-2.197266,1.403809,17.150879
2024-12-31 11:32:18.386959,-0.098511,0.098755,0.977173,-3.967285,2.624512,11.291504
2024-12-31 11:32:18.394959,-0.219482,0.037354,0.977783,-3.356934,4.089355,8.483887
2024-12-31 11:32:18.403959,-0.043091,0.101929,1.014526,-4.699707,-1.220703,14.343262
2024-12-31 11:32:18.411959,-0.095825,0.064941,1.028442,2.014160,1.403809,8.850098
2024-12-31 11:32:18.420959,-0.262695,0.009766,0.981079,-0.183105,1.281738,6.713867
2024-12-31 11:32:18.428959,-0.052002,0.199585,1.021484,-2.685547,0.732422,10.925293
2024-12-31 11:32:18.437959,-0.214233,0.066040,0.990356,-2.502441,3.784180,9.399414
2024-12-31 11:32:18.445959,-0.086914,0.095215,1.014038,-0.488281,1.281738,4.699707
2024-12-31 11:32:18.454959,-0.212524,0.020142,0.958618,0.183105,0.915527,4.455566
2024-12-31 11:32:18.462959,-0.216553,0.104492,1.000732,-1.953125,3.601074,4.638672
2024-12-31 11:32:18.470959,-0.035156,0.082031,1.047241,0.793457,0.488281,5.126953
2024-12-31 11:32:18.479959,-0.072754,0.167236,0.991333,-1.525879,2.685547,2.685547
2024-12-31 11:32:18.487959,-0.244385,0.054199,0.953613,-0.915527,1.159668,1.892090
2024-12-31 11:32:18.496959,-0.211792,-0.057983,0.972168,0.732422,2.014160,0.549316
2024-12-31 11:32:18.504959,-0.001587,0.010010,1.059082,-6.713867,2.502441,0.915527
2024-12-31 11:32:18.513959,-0.034302,0.078491,0.999390,-3.417969,-0.366211,0.122070
2024-12-31 11:32:18.521959,0.124756,-0.065186,1.068237,-1.525879,0.915527,-5.676270
2024-12-31 11:32:18.530959,-0.005005,0.143799,0.994751,-6.835938,1.831055,-5.065918
2024-12-31 11:32:18.538959,-0.082397,-0.121094,1.031860,-3.295898,0.488281,-4.943848
2024-12-31 11:32:18.547959,-0.090698,-0.084839,0.992798,-2.807617,0.610352,-6.713867
2024-12-31 11:32:18.555959,-0.177979,0.024048,0.980225,-2.746582,1.342773,-12.939453
2024-12-31 11:32:18.564959,0.221558,-0.044678,1.125122,-5.065918,1.464844,-7.812500
2024-12-31 11:32:18.572959,0.195679,0.006714,1.058472,-2.563477,1.953125,-9.521484
2024-12-31 11:32:18.580959,-0.228760,-0.197998,0.956299,-7.141113,2.502441,-6.530762
2024-12-31 11:32:18.589959,-0.074585,0.055542,0.987793,-3.295898,1.586914,-7.019043
2024-12-31 11:32:18.597959,-0.170776,-0.027954,0.985596,-4.333496,1.831055,-7.446289
2024-12-31 11:32:18.606959,0.010254,0.015137,1.054443,-3.479004,2.624512,-9.582520
2024-12-31 11:32:18.614959,0.010986,-0.043823,1.041626,-6.774902,-1.281738,-7.812500
2024-12-31 11:32:18.623959,-0.380981,-0.182983,0.843140,-1.831055,1.647949,-6.469727
2024-12-31 11:32:18.631959,0.211304,0.099243,1.130859,-6.347656,-2.075195,-5.432129
2024-12-31 11:32:18.640959,0.185181,-0.005371,1.103760,-1.647949,1.464844,-7.690430
2024-12-31 11:32:18.648959,-0.327759,-0.173462,0.913940,-5.920410,0.000000,-7.568359
2024-12-31 11:32:18.657959,-0.093262,0.014771,1.023804,-3.295898,0.000000,-8.789062
2024-12-31 11:32:18.665959,-0.077759,-0.057373,0.996338,-1.342773,-0.549316,-8.850098
2024-12-31 11:32:18.674959,-0.084717,-0.249634,0.969727,-1.831055,-0.793457,-9.277344
2024-12-31 11:32:18.682959,-0.071411,-0.074707,0.908081,-6.042480,0.244141,-4.699707
2024-12-31 11:32:18.691959,-0.126587,-0.034180,0.949463,-2.441406,-1.464844,-5.310059
2024-12-31 11:32:18.699959,0.015747,-0.047852,1.068604,-0.976562,0.488281,-3.662109
2024-12-31 11:32:18.707959,0.084351,0.017822,1.007568,-3.967285,1.464844,-3.479004
2024-12-31 11:32:18.716959,0.088135,0.007935,1.017578,-2.685547,-0.732422,-2.563477
2024-12-31 11:32:18.724959,0.118530,0.006104,1.022827,-3.601074,0.427246,0.549316
2024-12-31 11:32:18.733959,0.031250,-0.022461,0.975708,-3.295898,1.525879,1.708984
2024-12-31 11:32:18.741959,0.162842,0.003174,1.071533,-3.540039,2.319336,0.854492
2024-12-31 11:32:18.750959,-0.216431,-0.194092,0.879028,-0.366211,2.136230,-1.159668
2024-12-31 11:32:18.758959,-0.063232,-0.072388,0.982544,-4.272461,-2.319336,3.356934
2024-12-31 11:32:18.767959,-0.136230,-0.073120,0.958008,-1.586914,1.220703,3.479004
2024-12-31 11:32:18.775959,0.051270,-0.079468,1.030396,-4.150391,-0.549316,3.295898
2024-12-31 11:32:18.784959,-0.047363,-0.168457,0.935181,-5.859375,0.976562,7.080078
2024-12-31 11:32:18.792959,-0.046631,-0.140259,0.947144,-7.446289,0.610352,9.094238
2024-12-31 11:32:18.801959,0.051758,-0.141602,0.982788,-1.220703,2.136230,7.690430
2024-12-31 11:32:18.809959,0.123901,-0.062378,1.026245,-3.051758,1.770020,11.413574
2024-12-31 11:32:18.818959,0.097778,-0.124390,1.022339,-1.892090,1.403809,15.075684
2024-12-31 11:32:18.826959,0.072266,0.002075,1.029785,-1.953125,1.342773,15.625000
2024-12-31 11:32:18.834959,0.096191,-0.133545,1.026733,-3.845215,3.784180,12.451172
2024-12-31 11:32:18.843959,0.193359,-0.081665,1.017212,-0.610352,3.967285,14.953613
2024-12-31 11:32:18.851959,0.257324,0.029663,1.029907,-5.981445,3.051758,17.761230
2024-12-31 11:32:18.860959,0.077637,-0.017090,1.063477,-3.234863,3.234863,18.249512
2024-12-31 11:32:18.868959,0.128662,-0.113770,0.963379,0.183105,1.037598,27.038574
2024-12-31 11:32:18.877959,0.158081,-0.066162,1.014526,-0.122070,2.868652,28.259277
2024-12-31 11:32:18.885959,0.106201,0.045776,1.006958,-5.065918,1.098633,28.320312
2024-12-31 11:32:18.894959,0.147339,-0.004761,1.056763,-2.746582,2.990723,28.259277
2024-12-31 11:32:18.902959,0.201172,0.067383,0.994507,-0.549316,2.258301,30.883789
2024-12-31 11:32:18.911959,0.059326,-0.115723,0.935181,0.610352,0.183105,33.203125
2024-12-31 11:32:18.919959,0.232300,0.096680,0.999878,-4.028320,0.976562,36.926270
2024-12-31 11:32:18.928959,0.176758,-0.036133,0.948730,-2.990723,2.502441,38.146973
2024-12-31 11:32:18.936959,0.227783,-0.052856,0.979126,-2.380371,3.356934,36.926270
2024-12-31 11:32:18.945959,0.151245,0.040894,1.003662,-2.258301,0.427246,34.790039
2024-12-31 11:32:18.953959,-0.096558,0.095825,1.057495,-4.638672,1.098633,32.287598
2024-12-31 11:32:18.961959,0.043091,0.138550,1.005371,-2.624512,0.427246,31.433105
2024-12-31 11:32:18.970959,0.308105,0.073486,0.964722,-3.906250,0.244141,34.118652
2024-12-31 11:32:18.978959,0.025024,0.102661,1.026489,0.427246,2.441406,31.188965
2024-12-31 11:32:18.987959,0.060181,0.061035,1.006592,-3.295898,0.183105,28.625488
2024-12-31 11:32:18.995959,0.122925,0.127808,0.996948,-3.112793,0.183105,25.634766
2024-12-31 11:32:19.004959,-0.104614,0.009033,1.076538,-3.112793,0.610352,19.287109
2024-12-31 11:32:19.012959,0.086548,0.022583,1.034302,-0.976562,1.098633,22.399902
2024-12-31 11:32:19.021959,0.137085,-0.010864,0.948364,-5.126953,0.305176,18.432617
2024-12-31 11:32:19.029959,0.089722,0.060425,0.980591,-5.371094,0.549316,26.245117
2024-12-31 11:32:19.038959,0.008423,0.054810,0.972900,-7.629395,2.319336,17.028809
2024-12-31 11:32:19.046959,0.001953,0.087036,1.040894,-6.103516,1.770020,17.456055
2024-12-31 11:32:19.055959,-0.160400,-0.028809,1.115479,-3.173828,1.953125,15.686035
2024-12-31 11:32:19.063959,-0.101318,0.116089,1.079834,-1.953125,1.953125,19.714355
2024-12-31 11:32:19.071959,-0.157349,-0.038208,1.104248,-1.037598,2.136230,16.967773
2024-12-31 11:32:19.080959,-0.150269,0.038208,1.093628,-0.793457,0.610352,20.690918
2024-12-31 11:32:19.088959,-0.079834,0.062134,1.150513,-4.821777,2.258301,16.296387
2024-12-31 11:32:19.097959,-0.169556,-0.032715,1.132446,-3.234863,1.525879,20.141602
2024-12-31 11:32:19.105959,-0.166260,0.022461,1.139771,-1.464844,2.929688,19.165039
2024-12-31 11:32:19.114959,-0.171875,0.022583,1.092773,-1.464844,1.892090,16.723633
2024-12-31 11:32:19.122959,-0.210815,0.024658,1.148438,-4.638672,3.173828,16.357422
2024-12-31 11:32:19.131959,-0.199829,0.017822,1.068359,-0.915527,0.793457,18.859863
2024-12-31 11:32:19.139959,-0.276123,-0.011597,1.128296,-2.563477,4.150391,22.155762
2024-12-31 11:32:19.148959,-0.181152,0.012329,1.025879,-3.723145,-1.647949,23.620605
2024-12-31 11:32:19.156959,0.115356,-0.004272,1.004150,-2.075195,1.281738,19.409180
2024-12-31 11:32:19.165959,-0.130737,0.026489,1.007446,-3.601074,-3.112793,20.080566
2024-12-31 11:32:19.173959,-0.210205,0.016724,1.117920,0.183105,0.976562,16.357422
2024-12-31 11:32:19.182959,0.040649,-0.030884,0.886230,-3.479004,3.295898,16.662598
2024-12-31 11:32:19.190959,-0.132446,-0.018066,0.993530,-4.577637,0.305176,18.371582
2024-12-31 11:32:19.198959,-0.022339,-0.114502,0.940063,-1.281738,2.563477,20.202637
2024-12-31 11:32:19.207959,-0.117920,-0.063599,1.023804,-3.173828,3.173828,25.451660
2024-12-31 11:32:19.215959,-0.145874,0.054199,1.060181,-1.281738,1.525879,21.972656
2024-12-31 11:32:19.224959,-0.038940,-0.040771,1.020264,-1.098633,1.831055,21.179199
2024-12-31 11:32:19.232959,-0.027588,-0.012329,0.963989,-5.493164,-0.976562,25.024414
2024-12-31 11:32:19.241959,0.163818,0.010742,1.004639,-0.366211,0.061035,19.531250
2024-12-31 11:32:19.249959,-0.068726,0.219238,1.077759,-8.422852,1.037598,19.958496
2024-12-31 11:32:19.258959,-0.278931,0.019043,1.036499,-6.347656,2.441406,14.648438
2024-12-31 11:32:19.266959,-0.169189,0.050415,1.007446,-5.371094,1.953125,15.808105
2024-12-31 11:32:19.275959,-0.048950,-0.025024,0.974854,-3.723145,3.845215,12.023926
2024-12-31 11:32:19.283959,-0.222778,0.031982,1.003540,-3.662109,0.183105,12.756348
2024-12-31 11:32:19.292959,-0.026001,-0.006958,1.000732,-4.150391,3.845215,11.413574
2024-12-31 11:32:19.300959,-0.186890,-0.000610,1.013550,-4.943848,-0.122070,14.892578
2024-12-31 11:32:19.308959,-0.119751,0.144897,0.995850,-0.732422,2.014160,8.911133
2024-12-31 11:32:19.317959,-0.081055,0.067017,1.018921,-0.793457,5.554199,4.211426
2024-12-31 11:32:19.325959,-0.215088,-0.058960,0.994873,-2.868652,3.601074,10.314941
2024-12-31 11:32:19.334959,-0.082153,0.156860,1.020996,-2.014160,-1.037598,15.441895
2024-12-31 11:32:19.342959,-0.129395,0.040283,1.017090,-1.281738,1.403809,8.361816
2024-12-31 11:32:19.351959,-0.154419,0.086548,0.994751,-2.624512,3.234863,8.117676
2024-12-31 11:32:19.359959,-0.209717,0.095459,1.019409,-1.831055,2.624512,4.882812
2024-12-31 11:32:19.368959,0.182861,0.147095,1.075195,-0.305176,0.854492,4.821777
2024-12-31 11:32:19.376959,0.003906,-0.004272,1.072388,-2.075195,1.403809,6.164551
2024-12-31 11:32:19.385959,-0.002319,0.049072,1.060181,-1.342773,1.831055,7.507324
2024-12-31 11:32:19.393959,-0.053711,0.082886,0.992676,-0.305176,1.770020,6.103516
2024-12-31 11:32:19.402959,-0.174805,-0.063843,0.954224,-1.647949,3.417969,3.601074
2024-12-31 11:32:19.410959,-0.000610,0.005981,1.046143,-5.676270,0.854492,4.211426
2024-12-31 11:32:19.419959,0.060791,0.040161,1.000854,-0.427246,3.845215,3.845215
2024-12-31 11:32:19.427959,-0.224854,0.122803,0.965576,-7.507324,0.427246,5.676270
2024-12-31 11:32:19.435959,-0.070557,0.044922,0.963623,-1.159668,1.220703,2.502441
2024-12-31 11:32:19.444959,0.029907,-0.005249,1.031738,-4.882812,0.427246,1.464844
2024-12-31 11:32:19.452959,-0.214844,0.103027,0.983276,-4.699707,2.502441,-2.136230
2024-12-31 11:32:19.461959,-0.265503,-0.130493,0.910400,-3.112793,1.342773,-2.380371
2024-12-31 11:32:19.469959,0.147705,0.060547,1.051025,-3.967285,1.403809,-6.225586
2024-12-31 11:32:19.478959,-0.008423,0.088989,1.034668,-2.014160,0.854492,-2.990723
2024-12-31 11:32:19.486959,0.093262,-0.064819,1.090088,-4.455566,1.403809,-3.051758
2024-12-31 11:32:19.495959,-0.128662,-0.006104,1.004639,-2.197266,0.061035,-7.568359
2024-12-31 11:32:19.503959,-0.379150,-0.014160,0.898560,-1.770020,0.549316,-8.544922
2024-12-31 11:32:19.512959,-0.044434,0.104736,0.983154,-3.967285,0.488281,-8.300781
2024-12-31 11:32:19.520959,0.087036,0.105347,0.991943,-6.591797,-1.159668,-7.873535
2024-12-31 11:32:19.529959,0.021118,-0.051025,0.994873,-5.493164,-1.342773,-8.605957
2024-12-31 11:32:19.537959,0.050537,-0.136963,1.054443,-5.187988,-1.159668,-13.610840
2024-12-31 11:32:19.546959,0.157349,-0.049316,1.097656,-1.342773,0.366211,-16.601562
2024-12-31 11:32:19.554959,-0.140747,-0.011230,0.928101,-0.854492,1.220703,-13.732910
2024-12-31 11:32:19.562959,-0.181641,0.037109,0.956543,-3.784180,1.464844,-10.437012
2024-12-31 11:32:19.571959,0.096924,0.034058,1.079468,-2.075195,0.305176,-14.160156
2024-12-31 11:32:19.579959,0.091187,0.017334,1.072510,-1.953125,1.159668,-18.249512
2024-12-31 11:32:19.588959,-0.183838,0.037109,0.947876,-2.563477,0.732422,-19.531250
2024-12-31 11:32:19.596959,0.119751,0.119263,1.023315,-6.469727,0.122070,-21.667480
2024-12-31 11:32:19.605959,0.295166,-0.006348,1.055176,-2.624512,-0.793457,-22.155762
2024-12-31 11:32:19.613959,-0.080688,0.032104,0.955933,-2.075195,1.953125,-20.507812
2024-12-31 11:32:19.622959,0.073853,0.133545,1.026245,-2.441406,0.000000,-25.817871
2024-12-31 11:32:19.630959,-0.133667,-0.053101,0.918457,-2.075195,-0.244141,-25.024414
2024-12-31 11:32:19.639959,-0.014648,-0.078491,0.995972,-1.220703,-0.427246,-27.893066
2024-12-31 11:32:19.647959,-0.034912,0.067139,0.984009,0.061035,1.831055,-30.700684
2024-12-31 11:32:19.656959,0.239868,0.083496,1.059326,-4.394531,-2.136230,-25.390625
2024-12-31 11:32:19.664959,-0.181396,-0.034546,0.932007,-2.807617,2.868652,-26.428223
2024-12-31 11:32:19.672959,0.049683,0.122314,1.003052,-3.173828,1.525879,-25.146484
2024-12-31 11:32:19.681959,0.047241,-0.031982,1.025269,-1.586914,0.244141,-27.770996
2024-12-31 11:32:19.689959,0.018799,0.018311,0.979126,-3.845215,2.868652,-19.714355
2024-12-31 11:32:19.698959,0.016235,0.094482,0.986938,-4.089355,-1.464844,-24.963379
2024-12-31 11:32:19.706959,0.030884,0.208008,0.982178,-3.051758,-1.831055,-22.216797
2024-12-31 11:32:19.715959,0.234863,0.093872,1.048340,0.610352,-0.305176,-27.526855
2024-12-31 11:32:19.723959,0.362305,0.001099,1.114380,-1.342773,0.305176,-42.297363
2024-12-31 11:32:19.732959,0.238647,0.020142,1.045410,-4.272461,1.342773,-40.710449
2024-12-31 11:32:19.740959,0.123047,-0.051758,1.020996,-4.638672,-0.427246,-46.203613
2024-12-31 11:32:19.749959,0.173828,-0.013672,1.025635,-2.746582,0.244141,-42.785645
2024-12-31 11:32:19.757959,0.042114,-0.037109,1.007202,-1.892090,1.831055,-43.701172
2024-12-31 11:32:19.766959,0.442139,-0.093262,1.121094,-2.075195,1.220703,-44.860840
2024-12-31 11:32:19.774959,-0.007080,0.075195,0.962769,-2.014160,0.732422,-44.372559
2024-12-31 11:32:19.783959,0.240601,-0.029053,1.041748,-2.380371,0.549316,-41.076660
2024-12-31 11:32:19.791959,0.092041,0.053345,0.968262,-2.990723,-0.488281,-40.710449
2024-12-31 11:32:19.799959,-0.022461,-0.554810,1.020020,-1.342773,3.295898,-37.414551
2024-12-31 11:32:19.808959,0.136841,0.021118,0.995239,-2.868652,2.380371,-7.812500
2024-12-31 11:32:19.816959,0.166382,-0.080811,1.049805,1.220703,-2.685547,-27.893066
2024-12-31 11:32:19.825959,0.177368,0.046387,0.966431,-6.408691,2.441406,-37.658691
2024-12-31 11:32:19.833959,0.056519,-0.206299,1.050171,-6.164551,-0.122070,-29.907227
2024-12-31 11:32:19.842959,0.294800,0.111206,0.979492,-0.183105,1.525879,-10.192871
2024-12-31 11:32:19.850959,-0.114136,-0.063843,1.012207,-9.704590,3.051758,-20.263672
2024-12-31 11:32:19.859959,0.259888,-0.101929,0.950195,0.732422,-0.061035,-20.996094
2024-12-31 11:32:19.867959,0.219238,-0.130493,1.035278,-4.699707,-3.051758,-16.174316
2024-12-31 11:32:19.876959,-0.130371,0.012939,0.961304,-4.089355,-0.488281,-13.671875
2024-12-31 11:32:19.884959,-0.047607,-0.043579,1.051758,-0.244141,5.187988,-8.239746
2024-12-31 11:32:19.893959,-0.140259,-0.026123,1.068970,-1.098633,1.281738,-13.305664
2024-12-31 11:32:19.901959,-0.172974,-0.058350,1.050171,-4.882812,-0.305176,-16.296387
